"rt","stimulus","response","trial_type","trial_index","time_elapsed","internal_node_id","subject_id","consent_age","consent_understand","consent_voluntary","consent_valid","current_practice_images","success","timeout","failed_images","failed_audio","failed_video","task","trial_number","correct_answer","response_label","correct","condition","image_left","image_right","question_order","age","race_ethnicity","sex","education","living_status"
"5001","
            <h1>Research Study Consent Form</h1>
            <div class=""consent-content"">
                <p>You are being invited to participate in a research study titled ""Reproducibility of Psychological Science and Instruction."" This study is being done by Dr. Bria Long from UC San Diego and associated graduate students in Experimental Methods course. You were selected to participate in this study because you are an adult in the U.S. and have been a represented population in previous psychology studies.</p>
                
                <p>The purpose of this study is to better understand how well previously published studies in the psychological field replicate online and with different populations. Your participation in this research should last approximately 5-30 minutes. If you agree to take part in this study, you may be asked to view a set of stimuli, including pictures, sounds, written text, or videos and then giving some responses via key-presses, verbally, or with paper-and-pencil. We may also observe your choices or preferences among an array of stimuli. These stimuli will be taken directly from or closely adapted from studies that already exist in the published psychological literature. Stimuli will include, e.g., pictures of objects and human faces, audio and video clips, short text passages, etc. None of the stimuli will be disturbing, threatening, or offensive. The online and in-person experiments described in this protocol will take no more than 30 minutes. An example game you might play would be to click on an image on the screen that matches a word you hear being said out loud. Your total expected time commitment for this study is between 5-30 minutes, and is specified in the study description.</p>
                
                <p>Your participation in this study is completely voluntary and you can withdraw at any time. Choosing not to participate or withdrawing will result in no penalty or loss of benefits to which you are entitled. You are free to skip any question that you choose.</p>
                
                <p>We will not be asking for any personally identifying information, and we will handle responses as confidentially as possible. Your SONA or Prolific IDs will never be tied to your responses on this survey. However, we cannot guarantee the confidentiality of information transmitted over the Internet. To minimize this risk, data containing anything that might be personally identifiable (e.g. Prolific IDs or IP addresses) will be encrypted on transfer and storage and will only be accessible to qualified lab personnel. We will be keeping data collected as part of this experiment indefinitely. This anonymized data (containing neither Prolific IDs nor IP addresses) may be shared with the scientific community or with other participants to be used as stimuli in future studies.</p>
                
                <p>If you have questions about this project or if you have a research-related problem, you may contact the researcher(s), Dr. Bria Long, <a href=""mailto:brlong@ucsd.edu"">brlong@ucsd.edu</a>. If you have any questions concerning your rights as a research subject, you may contact the UC San Diego Office of IRB Administration at <a href=""mailto:irb@ucsd.edu"">irb@ucsd.edu</a> or 858-246-4777.</p>
                
                <p><strong>By participating in this research you are indicating that you are at least 18 years old, have read this consent form, and agree to participate in this research study. Please keep this consent form for your records.</strong></p>
            </div>
            
            <div class=""consent-checkboxes"">
                <h3>Please confirm:</h3>
                <label>
                    <input type=""checkbox"" id=""consent-age"" required>
                    I confirm that I am 18 years of age or older
                </label>
                <label>
                    <input type=""checkbox"" id=""consent-understand"" required>
                    I have read the consent form
                </label>
                <label>
                    <input type=""checkbox"" id=""consent-voluntary"" required>
                    I understand that participation is voluntary and I can withdraw at any time
                </label>
            </div>
        ","0","html-button-response","0","5003","0.0-0.0","135kmb26u5","true","true","true","true","[""https://raw.githubusercontent.com/annapusok731/lookit-stimuli-template/master/test_stimuli/bridget_alexis.jpg"",""https://raw.githubusercontent.com/annapusok731/lookit-stimuli-template/master/test_stimuli/bridget_bridget.jpg""]","","","","","","","","","","","","","","","","","","",""
"9242","
            <h1>Instructions</h1>
            <p>In this task, you will see two pictures of faces side-by-side.</p>
            <p>You will have to decide whether the top parts of the faces are the same or different.</p>
            <p>To answer, click on either the ""SAME"" or ""DIFFERENT"" buttons below the images.</p>
            <p>Try to answer as quickly as you can.</p>
            <p>There will be practice trials. Once you click on ""Next"" after the second practice, the experiment will automatically start.</p>
            <p>After the experiment, we ask you to fill out two surveys.</p>
        ","0","html-button-response","1","14247","0.0-1.0","135kmb26u5","","","","","[""https://raw.githubusercontent.com/annapusok731/lookit-stimuli-template/master/test_stimuli/bridget_alexis.jpg"",""https://raw.githubusercontent.com/annapusok731/lookit-stimuli-template/master/test_stimuli/bridget_bridget.jpg""]","","","","","","","","","","","","","","","","","","",""
"","","","preload","2","25388","0.0-2.0","135kmb26u5","","","","","[""https://raw.githubusercontent.com/annapusok731/lookit-stimuli-template/master/test_stimuli/bridget_alexis.jpg"",""https://raw.githubusercontent.com/annapusok731/lookit-stimuli-template/master/test_stimuli/bridget_bridget.jpg""]","true","false","[]","[]","[]","","","","","","","","","","","","","",""
"1229","","","fullscreen","3","27620","0.0-3.0","135kmb26u5","","","","","[""https://raw.githubusercontent.com/annapusok731/lookit-stimuli-template/master/test_stimuli/bridget_alexis.jpg"",""https://raw.githubusercontent.com/annapusok731/lookit-stimuli-template/master/test_stimuli/bridget_bridget.jpg""]","true","","","","","","","","","","","","","","","","","",""
"null","<div class=""fixation-cross"">+</div>","null","html-keyboard-response","4","28823","0.0-4.0-0.0","135kmb26u5","","","","","[""https://raw.githubusercontent.com/annapusok731/lookit-stimuli-template/master/test_stimuli/bridget_alexis.jpg"",""https://raw.githubusercontent.com/annapusok731/lookit-stimuli-template/master/test_stimuli/bridget_bridget.jpg""]","","","","","","","","","","","","","","","","","","",""
"2743","
            <div style=""text-align: center;"">
                <p style=""color: #666; font-size: 14px; margin-bottom: 20px;"">Practice Trial 1 of 2</p>
                <div class=""face-images"">
                    <img src=""https://raw.githubusercontent.com/annapusok731/lookit-stimuli-template/master/test_stimuli/william_arnold.jpg"" alt=""Face 1"">
                    <img src=""https://raw.githubusercontent.com/annapusok731/lookit-stimuli-template/master/test_stimuli/arnold_william.jpg"" alt=""Face 2"">
                </div>
                <h2 class=""trial-question"">Are the top parts of the faces, the yellow parts, the same or different?</h2>
            </div>
        ","1","html-button-response","5","31568","0.0-4.0-1.0","135kmb26u5","","","","","[""https://raw.githubusercontent.com/annapusok731/lookit-stimuli-template/master/test_stimuli/bridget_alexis.jpg"",""https://raw.githubusercontent.com/annapusok731/lookit-stimuli-template/master/test_stimuli/bridget_bridget.jpg""]","","","","","","practice","1","different","different","true","","","","","","","","",""
"782","
                                <h1 class=""feedback-correct"">Great job!</h1>
                                <p style=""font-size: 18px; margin-top: 20px;"">The top parts of the faces are different!</p>
                            ","0","html-button-response","6","32351","0.0-4.0-2.0","135kmb26u5","","","","","[""https://raw.githubusercontent.com/annapusok731/lookit-stimuli-template/master/test_stimuli/bridget_alexis.jpg"",""https://raw.githubusercontent.com/annapusok731/lookit-stimuli-template/master/test_stimuli/bridget_bridget.jpg""]","","","","","","","","","","","","","","","","","","",""
"null","<div class=""fixation-cross"">+</div>","null","html-keyboard-response","7","33554","0.0-5.0-0.0","135kmb26u5","","","","","[""https://raw.githubusercontent.com/annapusok731/lookit-stimuli-template/master/test_stimuli/bridget_alexis.jpg"",""https://raw.githubusercontent.com/annapusok731/lookit-stimuli-template/master/test_stimuli/bridget_bridget.jpg""]","","","","","","","","","","","","","","","","","","",""
"1191","
            <div style=""text-align: center;"">
                <p style=""color: #666; font-size: 14px; margin-bottom: 20px;"">Practice Trial 2 of 2</p>
                <div class=""face-images"">
                    <img src=""https://raw.githubusercontent.com/annapusok731/lookit-stimuli-template/master/test_stimuli/bridget_bridget.jpg"" alt=""Face 1"">
                    <img src=""https://raw.githubusercontent.com/annapusok731/lookit-stimuli-template/master/test_stimuli/bridget_alexis.jpg"" alt=""Face 2"">
                </div>
                <h2 class=""trial-question"">Are the top parts of the faces, the yellow parts, the same or different?</h2>
            </div>
        ","1","html-button-response","8","34747","0.0-5.0-1.0","135kmb26u5","","","","","[""https://raw.githubusercontent.com/annapusok731/lookit-stimuli-template/master/test_stimuli/bridget_alexis.jpg"",""https://raw.githubusercontent.com/annapusok731/lookit-stimuli-template/master/test_stimuli/bridget_bridget.jpg""]","","","","","","practice","2","same","different","false","","","","","","","","",""
"4452","
                                <h1 class=""feedback-incorrect"">Try again!</h1>
                                <p style=""font-size: 18px; margin-top: 20px;"">The top parts of the faces are same. Let's practice this one again.</p>
                            ","0","html-button-response","9","39201","0.0-5.0-2.0","135kmb26u5","","","","","[""https://raw.githubusercontent.com/annapusok731/lookit-stimuli-template/master/test_stimuli/bridget_alexis.jpg"",""https://raw.githubusercontent.com/annapusok731/lookit-stimuli-template/master/test_stimuli/bridget_bridget.jpg""]","","","","","","","","","","","","","","","","","","",""
"null","<div class=""fixation-cross"">+</div>","null","html-keyboard-response","10","40403","0.0-5.1-0.1","135kmb26u5","","","","","[""https://raw.githubusercontent.com/annapusok731/lookit-stimuli-template/master/test_stimuli/bridget_alexis.jpg"",""https://raw.githubusercontent.com/annapusok731/lookit-stimuli-template/master/test_stimuli/bridget_bridget.jpg""]","","","","","","","","","","","","","","","","","","",""
"1226","
            <div style=""text-align: center;"">
                <p style=""color: #666; font-size: 14px; margin-bottom: 20px;"">Practice Trial 2 of 2</p>
                <div class=""face-images"">
                    <img src=""https://raw.githubusercontent.com/annapusok731/lookit-stimuli-template/master/test_stimuli/bridget_alexis.jpg"" alt=""Face 1"">
                    <img src=""https://raw.githubusercontent.com/annapusok731/lookit-stimuli-template/master/test_stimuli/bridget_bridget.jpg"" alt=""Face 2"">
                </div>
                <h2 class=""trial-question"">Are the top parts of the faces, the yellow parts, the same or different?</h2>
            </div>
        ","0","html-button-response","11","41631","0.0-5.1-1.1","135kmb26u5","","","","","[""https://raw.githubusercontent.com/annapusok731/lookit-stimuli-template/master/test_stimuli/bridget_alexis.jpg"",""https://raw.githubusercontent.com/annapusok731/lookit-stimuli-template/master/test_stimuli/bridget_bridget.jpg""]","","","","","","practice","2","same","same","true","","","","","","","","",""
"1749","
                                <h1 class=""feedback-correct"">Great job!</h1>
                                <p style=""font-size: 18px; margin-top: 20px;"">The top parts of the faces are same!</p>
                            ","0","html-button-response","12","43381","0.0-5.1-2.1","135kmb26u5","","","","","[""https://raw.githubusercontent.com/annapusok731/lookit-stimuli-template/master/test_stimuli/bridget_alexis.jpg"",""https://raw.githubusercontent.com/annapusok731/lookit-stimuli-template/master/test_stimuli/bridget_bridget.jpg""]","","","","","","","","","","","","","","","","","","",""
"1073","
            <h1 class=""feedback-correct"">Practice Complete!</h1>
            <p style=""font-size: 18px; margin-top: 20px;"">Great job! Now starting the experiment.</p>
        ","0","html-button-response","13","44455","0.0-6.0","135kmb26u5","","","","","[""https://raw.githubusercontent.com/annapusok731/lookit-stimuli-template/master/test_stimuli/bridget_alexis.jpg"",""https://raw.githubusercontent.com/annapusok731/lookit-stimuli-template/master/test_stimuli/bridget_bridget.jpg""]","","","","","","","","","","","","","","","","","","",""
"null","<div class=""fixation-cross"">+</div>","null","html-keyboard-response","14","45658","0.0-7.0-0.0","135kmb26u5","","","","","[""https://raw.githubusercontent.com/annapusok731/lookit-stimuli-template/master/test_stimuli/bridget_alexis.jpg"",""https://raw.githubusercontent.com/annapusok731/lookit-stimuli-template/master/test_stimuli/bridget_bridget.jpg""]","","","","","","","","","","","","","","","","","","",""
"1580","
            <div style=""text-align: center;"">
                <p style=""color: #666; font-size: 14px; margin-bottom: 20px;"">Trial 1 of 96</p>
                <div class=""face-images"">
                    <img src=""https://raw.githubusercontent.com/annapusok731/composite_face_effect_studies/main/CFE_Adult/aligned/mike_mike.jpg"" alt=""Face 1"">
                    <img src=""https://raw.githubusercontent.com/annapusok731/composite_face_effect_studies/main/CFE_Adult/aligned/mike_jason.jpg"" alt=""Face 2"">
                </div>
                <h2 class=""trial-question"">Are the top parts of the faces, the yellow parts, the same or different?</h2>
            </div>
        ","1","html-button-response","15","47239","0.0-7.0-1.0","135kmb26u5","","","","","[""https://raw.githubusercontent.com/annapusok731/lookit-stimuli-template/master/test_stimuli/bridget_alexis.jpg"",""https://raw.githubusercontent.com/annapusok731/lookit-stimuli-template/master/test_stimuli/bridget_bridget.jpg""]","","","","","","main","1","same","different","false","same_aligned","https://raw.githubusercontent.com/annapusok731/composite_face_effect_studies/main/CFE_Adult/aligned/mike_mike.jpg","https://raw.githubusercontent.com/annapusok731/composite_face_effect_studies/main/CFE_Adult/aligned/mike_jason.jpg","","","","","",""
"null","<div class=""fixation-cross"">+</div>","null","html-keyboard-response","16","48441","0.0-8.0-0.0","135kmb26u5","","","","","[""https://raw.githubusercontent.com/annapusok731/lookit-stimuli-template/master/test_stimuli/bridget_alexis.jpg"",""https://raw.githubusercontent.com/annapusok731/lookit-stimuli-template/master/test_stimuli/bridget_bridget.jpg""]","","","","","","","","","","","","","","","","","","",""
"2975","
            <div style=""text-align: center;"">
                <p style=""color: #666; font-size: 14px; margin-bottom: 20px;"">Trial 2 of 96</p>
                <div class=""face-images"">
                    <img src=""https://raw.githubusercontent.com/annapusok731/composite_face_effect_studies/main/CFE_Adult/misaligned/emma_lili.jpg"" alt=""Face 1"">
                    <img src=""https://raw.githubusercontent.com/annapusok731/composite_face_effect_studies/main/CFE_Adult/misaligned/lili_emma.jpg"" alt=""Face 2"">
                </div>
                <h2 class=""trial-question"">Are the top parts of the faces, the yellow parts, the same or different?</h2>
            </div>
        ","1","html-button-response","17","51418","0.0-8.0-1.0","135kmb26u5","","","","","[""https://raw.githubusercontent.com/annapusok731/lookit-stimuli-template/master/test_stimuli/bridget_alexis.jpg"",""https://raw.githubusercontent.com/annapusok731/lookit-stimuli-template/master/test_stimuli/bridget_bridget.jpg""]","","","","","","main","2","different","different","true","diff_misalign","https://raw.githubusercontent.com/annapusok731/composite_face_effect_studies/main/CFE_Adult/misaligned/emma_lili.jpg","https://raw.githubusercontent.com/annapusok731/composite_face_effect_studies/main/CFE_Adult/misaligned/lili_emma.jpg","","","","","",""
"null","<div class=""fixation-cross"">+</div>","null","html-keyboard-response","18","52620","0.0-9.0-0.0","135kmb26u5","","","","","[""https://raw.githubusercontent.com/annapusok731/lookit-stimuli-template/master/test_stimuli/bridget_alexis.jpg"",""https://raw.githubusercontent.com/annapusok731/lookit-stimuli-template/master/test_stimuli/bridget_bridget.jpg""]","","","","","","","","","","","","","","","","","","",""
"638","
            <div style=""text-align: center;"">
                <p style=""color: #666; font-size: 14px; margin-bottom: 20px;"">Trial 3 of 96</p>
                <div class=""face-images"">
                    <img src=""https://raw.githubusercontent.com/annapusok731/composite_face_effect_studies/main/CFE_Adult/misaligned/emma_emma.jpg"" alt=""Face 1"">
                    <img src=""https://raw.githubusercontent.com/annapusok731/composite_face_effect_studies/main/CFE_Adult/misaligned/emma_lili.jpg"" alt=""Face 2"">
                </div>
                <h2 class=""trial-question"">Are the top parts of the faces, the yellow parts, the same or different?</h2>
            </div>
        ","1","html-button-response","19","53259","0.0-9.0-1.0","135kmb26u5","","","","","[""https://raw.githubusercontent.com/annapusok731/lookit-stimuli-template/master/test_stimuli/bridget_alexis.jpg"",""https://raw.githubusercontent.com/annapusok731/lookit-stimuli-template/master/test_stimuli/bridget_bridget.jpg""]","","","","","","main","3","same","different","false","same_misaligned","https://raw.githubusercontent.com/annapusok731/composite_face_effect_studies/main/CFE_Adult/misaligned/emma_emma.jpg","https://raw.githubusercontent.com/annapusok731/composite_face_effect_studies/main/CFE_Adult/misaligned/emma_lili.jpg","","","","","",""
"null","<div class=""fixation-cross"">+</div>","null","html-keyboard-response","20","54462","0.0-10.0-0.0","135kmb26u5","","","","","[""https://raw.githubusercontent.com/annapusok731/lookit-stimuli-template/master/test_stimuli/bridget_alexis.jpg"",""https://raw.githubusercontent.com/annapusok731/lookit-stimuli-template/master/test_stimuli/bridget_bridget.jpg""]","","","","","","","","","","","","","","","","","","",""
"1155","
            <div style=""text-align: center;"">
                <p style=""color: #666; font-size: 14px; margin-bottom: 20px;"">Trial 4 of 96</p>
                <div class=""face-images"">
                    <img src=""https://raw.githubusercontent.com/annapusok731/composite_face_effect_studies/main/CFE_Adult/aligned/alex_rick.jpg"" alt=""Face 1"">
                    <img src=""https://raw.githubusercontent.com/annapusok731/composite_face_effect_studies/main/CFE_Adult/aligned/rick_alex.jpg"" alt=""Face 2"">
                </div>
                <h2 class=""trial-question"">Are the top parts of the faces, the yellow parts, the same or different?</h2>
            </div>
        ","1","html-button-response","21","55618","0.0-10.0-1.0","135kmb26u5","","","","","[""https://raw.githubusercontent.com/annapusok731/lookit-stimuli-template/master/test_stimuli/bridget_alexis.jpg"",""https://raw.githubusercontent.com/annapusok731/lookit-stimuli-template/master/test_stimuli/bridget_bridget.jpg""]","","","","","","main","4","different","different","true","diff_align","https://raw.githubusercontent.com/annapusok731/composite_face_effect_studies/main/CFE_Adult/aligned/alex_rick.jpg","https://raw.githubusercontent.com/annapusok731/composite_face_effect_studies/main/CFE_Adult/aligned/rick_alex.jpg","","","","","",""
"null","<div class=""fixation-cross"">+</div>","null","html-keyboard-response","22","56821","0.0-11.0-0.0","135kmb26u5","","","","","[""https://raw.githubusercontent.com/annapusok731/lookit-stimuli-template/master/test_stimuli/bridget_alexis.jpg"",""https://raw.githubusercontent.com/annapusok731/lookit-stimuli-template/master/test_stimuli/bridget_bridget.jpg""]","","","","","","","","","","","","","","","","","","",""
"1037","
            <div style=""text-align: center;"">
                <p style=""color: #666; font-size: 14px; margin-bottom: 20px;"">Trial 5 of 96</p>
                <div class=""face-images"">
                    <img src=""https://raw.githubusercontent.com/annapusok731/composite_face_effect_studies/main/CFE_Adult/misaligned/liam_carter.jpg"" alt=""Face 1"">
                    <img src=""https://raw.githubusercontent.com/annapusok731/composite_face_effect_studies/main/CFE_Adult/misaligned/liam_liam.jpg"" alt=""Face 2"">
                </div>
                <h2 class=""trial-question"">Are the top parts of the faces, the yellow parts, the same or different?</h2>
            </div>
        ","1","html-button-response","23","57859","0.0-11.0-1.0","135kmb26u5","","","","","[""https://raw.githubusercontent.com/annapusok731/lookit-stimuli-template/master/test_stimuli/bridget_alexis.jpg"",""https://raw.githubusercontent.com/annapusok731/lookit-stimuli-template/master/test_stimuli/bridget_bridget.jpg""]","","","","","","main","5","same","different","false","same_misaligned","https://raw.githubusercontent.com/annapusok731/composite_face_effect_studies/main/CFE_Adult/misaligned/liam_carter.jpg","https://raw.githubusercontent.com/annapusok731/composite_face_effect_studies/main/CFE_Adult/misaligned/liam_liam.jpg","","","","","",""
"null","<div class=""fixation-cross"">+</div>","null","html-keyboard-response","24","59062","0.0-12.0-0.0","135kmb26u5","","","","","[""https://raw.githubusercontent.com/annapusok731/lookit-stimuli-template/master/test_stimuli/bridget_alexis.jpg"",""https://raw.githubusercontent.com/annapusok731/lookit-stimuli-template/master/test_stimuli/bridget_bridget.jpg""]","","","","","","","","","","","","","","","","","","",""
"1796","
            <div style=""text-align: center;"">
                <p style=""color: #666; font-size: 14px; margin-bottom: 20px;"">Trial 6 of 96</p>
                <div class=""face-images"">
                    <img src=""https://raw.githubusercontent.com/annapusok731/composite_face_effect_studies/main/CFE_Adult/aligned/will_dan.jpg"" alt=""Face 1"">
                    <img src=""https://raw.githubusercontent.com/annapusok731/composite_face_effect_studies/main/CFE_Adult/aligned/dan_will.jpg"" alt=""Face 2"">
                </div>
                <h2 class=""trial-question"">Are the top parts of the faces, the yellow parts, the same or different?</h2>
            </div>
        ","1","html-button-response","25","60859","0.0-12.0-1.0","135kmb26u5","","","","","[""https://raw.githubusercontent.com/annapusok731/lookit-stimuli-template/master/test_stimuli/bridget_alexis.jpg"",""https://raw.githubusercontent.com/annapusok731/lookit-stimuli-template/master/test_stimuli/bridget_bridget.jpg""]","","","","","","main","6","different","different","true","diff_align","https://raw.githubusercontent.com/annapusok731/composite_face_effect_studies/main/CFE_Adult/aligned/will_dan.jpg","https://raw.githubusercontent.com/annapusok731/composite_face_effect_studies/main/CFE_Adult/aligned/dan_will.jpg","","","","","",""
"null","<div class=""fixation-cross"">+</div>","null","html-keyboard-response","26","62062","0.0-13.0-0.0","135kmb26u5","","","","","[""https://raw.githubusercontent.com/annapusok731/lookit-stimuli-template/master/test_stimuli/bridget_alexis.jpg"",""https://raw.githubusercontent.com/annapusok731/lookit-stimuli-template/master/test_stimuli/bridget_bridget.jpg""]","","","","","","","","","","","","","","","","","","",""
"630","
            <div style=""text-align: center;"">
                <p style=""color: #666; font-size: 14px; margin-bottom: 20px;"">Trial 7 of 96</p>
                <div class=""face-images"">
                    <img src=""https://raw.githubusercontent.com/annapusok731/composite_face_effect_studies/main/CFE_Adult/misaligned/daisy_daisy.jpg"" alt=""Face 1"">
                    <img src=""https://raw.githubusercontent.com/annapusok731/composite_face_effect_studies/main/CFE_Adult/misaligned/daisy_tammy.jpg"" alt=""Face 2"">
                </div>
                <h2 class=""trial-question"">Are the top parts of the faces, the yellow parts, the same or different?</h2>
            </div>
        ","1","html-button-response","27","62694","0.0-13.0-1.0","135kmb26u5","","","","","[""https://raw.githubusercontent.com/annapusok731/lookit-stimuli-template/master/test_stimuli/bridget_alexis.jpg"",""https://raw.githubusercontent.com/annapusok731/lookit-stimuli-template/master/test_stimuli/bridget_bridget.jpg""]","","","","","","main","7","same","different","false","same_misaligned","https://raw.githubusercontent.com/annapusok731/composite_face_effect_studies/main/CFE_Adult/misaligned/daisy_daisy.jpg","https://raw.githubusercontent.com/annapusok731/composite_face_effect_studies/main/CFE_Adult/misaligned/daisy_tammy.jpg","","","","","",""
"null","<div class=""fixation-cross"">+</div>","null","html-keyboard-response","28","63895","0.0-14.0-0.0","135kmb26u5","","","","","[""https://raw.githubusercontent.com/annapusok731/lookit-stimuli-template/master/test_stimuli/bridget_alexis.jpg"",""https://raw.githubusercontent.com/annapusok731/lookit-stimuli-template/master/test_stimuli/bridget_bridget.jpg""]","","","","","","","","","","","","","","","","","","",""
"967","
            <div style=""text-align: center;"">
                <p style=""color: #666; font-size: 14px; margin-bottom: 20px;"">Trial 8 of 96</p>
                <div class=""face-images"">
                    <img src=""https://raw.githubusercontent.com/annapusok731/composite_face_effect_studies/main/CFE_Adult/aligned/liv_rose.jpg"" alt=""Face 1"">
                    <img src=""https://raw.githubusercontent.com/annapusok731/composite_face_effect_studies/main/CFE_Adult/aligned/rose_liv.jpg"" alt=""Face 2"">
                </div>
                <h2 class=""trial-question"">Are the top parts of the faces, the yellow parts, the same or different?</h2>
            </div>
        ","1","html-button-response","29","64863","0.0-14.0-1.0","135kmb26u5","","","","","[""https://raw.githubusercontent.com/annapusok731/lookit-stimuli-template/master/test_stimuli/bridget_alexis.jpg"",""https://raw.githubusercontent.com/annapusok731/lookit-stimuli-template/master/test_stimuli/bridget_bridget.jpg""]","","","","","","main","8","different","different","true","diff_align","https://raw.githubusercontent.com/annapusok731/composite_face_effect_studies/main/CFE_Adult/aligned/liv_rose.jpg","https://raw.githubusercontent.com/annapusok731/composite_face_effect_studies/main/CFE_Adult/aligned/rose_liv.jpg","","","","","",""
"null","<div class=""fixation-cross"">+</div>","null","html-keyboard-response","30","66066","0.0-15.0-0.0","135kmb26u5","","","","","[""https://raw.githubusercontent.com/annapusok731/lookit-stimuli-template/master/test_stimuli/bridget_alexis.jpg"",""https://raw.githubusercontent.com/annapusok731/lookit-stimuli-template/master/test_stimuli/bridget_bridget.jpg""]","","","","","","","","","","","","","","","","","","",""
"696","
            <div style=""text-align: center;"">
                <p style=""color: #666; font-size: 14px; margin-bottom: 20px;"">Trial 9 of 96</p>
                <div class=""face-images"">
                    <img src=""https://raw.githubusercontent.com/annapusok731/composite_face_effect_studies/main/CFE_Adult/aligned/lili_emma.jpg"" alt=""Face 1"">
                    <img src=""https://raw.githubusercontent.com/annapusok731/composite_face_effect_studies/main/CFE_Adult/aligned/lili_lili.jpg"" alt=""Face 2"">
                </div>
                <h2 class=""trial-question"">Are the top parts of the faces, the yellow parts, the same or different?</h2>
            </div>
        ","1","html-button-response","31","66763","0.0-15.0-1.0","135kmb26u5","","","","","[""https://raw.githubusercontent.com/annapusok731/lookit-stimuli-template/master/test_stimuli/bridget_alexis.jpg"",""https://raw.githubusercontent.com/annapusok731/lookit-stimuli-template/master/test_stimuli/bridget_bridget.jpg""]","","","","","","main","9","same","different","false","same_aligned","https://raw.githubusercontent.com/annapusok731/composite_face_effect_studies/main/CFE_Adult/aligned/lili_emma.jpg","https://raw.githubusercontent.com/annapusok731/composite_face_effect_studies/main/CFE_Adult/aligned/lili_lili.jpg","","","","","",""
"null","<div class=""fixation-cross"">+</div>","null","html-keyboard-response","32","67966","0.0-16.0-0.0","135kmb26u5","","","","","[""https://raw.githubusercontent.com/annapusok731/lookit-stimuli-template/master/test_stimuli/bridget_alexis.jpg"",""https://raw.githubusercontent.com/annapusok731/lookit-stimuli-template/master/test_stimuli/bridget_bridget.jpg""]","","","","","","","","","","","","","","","","","","",""
"838","
            <div style=""text-align: center;"">
                <p style=""color: #666; font-size: 14px; margin-bottom: 20px;"">Trial 10 of 96</p>
                <div class=""face-images"">
                    <img src=""https://raw.githubusercontent.com/annapusok731/composite_face_effect_studies/main/CFE_Adult/misaligned/oliver_leo.jpg"" alt=""Face 1"">
                    <img src=""https://raw.githubusercontent.com/annapusok731/composite_face_effect_studies/main/CFE_Adult/misaligned/oliver_oliver.jpg"" alt=""Face 2"">
                </div>
                <h2 class=""trial-question"">Are the top parts of the faces, the yellow parts, the same or different?</h2>
            </div>
        ","1","html-button-response","33","68805","0.0-16.0-1.0","135kmb26u5","","","","","[""https://raw.githubusercontent.com/annapusok731/lookit-stimuli-template/master/test_stimuli/bridget_alexis.jpg"",""https://raw.githubusercontent.com/annapusok731/lookit-stimuli-template/master/test_stimuli/bridget_bridget.jpg""]","","","","","","main","10","same","different","false","same_misaligned","https://raw.githubusercontent.com/annapusok731/composite_face_effect_studies/main/CFE_Adult/misaligned/oliver_leo.jpg","https://raw.githubusercontent.com/annapusok731/composite_face_effect_studies/main/CFE_Adult/misaligned/oliver_oliver.jpg","","","","","",""
"null","<div class=""fixation-cross"">+</div>","null","html-keyboard-response","34","70008","0.0-17.0-0.0","135kmb26u5","","","","","[""https://raw.githubusercontent.com/annapusok731/lookit-stimuli-template/master/test_stimuli/bridget_alexis.jpg"",""https://raw.githubusercontent.com/annapusok731/lookit-stimuli-template/master/test_stimuli/bridget_bridget.jpg""]","","","","","","","","","","","","","","","","","","",""
"1196","
            <div style=""text-align: center;"">
                <p style=""color: #666; font-size: 14px; margin-bottom: 20px;"">Trial 11 of 96</p>
                <div class=""face-images"">
                    <img src=""https://raw.githubusercontent.com/annapusok731/composite_face_effect_studies/main/CFE_Adult/misaligned/jess_jess.jpg"" alt=""Face 1"">
                    <img src=""https://raw.githubusercontent.com/annapusok731/composite_face_effect_studies/main/CFE_Adult/misaligned/jess_amber.jpg"" alt=""Face 2"">
                </div>
                <h2 class=""trial-question"">Are the top parts of the faces, the yellow parts, the same or different?</h2>
            </div>
        ","1","html-button-response","35","71205","0.0-17.0-1.0","135kmb26u5","","","","","[""https://raw.githubusercontent.com/annapusok731/lookit-stimuli-template/master/test_stimuli/bridget_alexis.jpg"",""https://raw.githubusercontent.com/annapusok731/lookit-stimuli-template/master/test_stimuli/bridget_bridget.jpg""]","","","","","","main","11","same","different","false","same_misaligned","https://raw.githubusercontent.com/annapusok731/composite_face_effect_studies/main/CFE_Adult/misaligned/jess_jess.jpg","https://raw.githubusercontent.com/annapusok731/composite_face_effect_studies/main/CFE_Adult/misaligned/jess_amber.jpg","","","","","",""
"null","<div class=""fixation-cross"">+</div>","null","html-keyboard-response","36","72408","0.0-18.0-0.0","135kmb26u5","","","","","[""https://raw.githubusercontent.com/annapusok731/lookit-stimuli-template/master/test_stimuli/bridget_alexis.jpg"",""https://raw.githubusercontent.com/annapusok731/lookit-stimuli-template/master/test_stimuli/bridget_bridget.jpg""]","","","","","","","","","","","","","","","","","","",""
"522","
            <div style=""text-align: center;"">
                <p style=""color: #666; font-size: 14px; margin-bottom: 20px;"">Trial 12 of 96</p>
                <div class=""face-images"">
                    <img src=""https://raw.githubusercontent.com/annapusok731/composite_face_effect_studies/main/CFE_Adult/misaligned/bob_bob.jpg"" alt=""Face 1"">
                    <img src=""https://raw.githubusercontent.com/annapusok731/composite_face_effect_studies/main/CFE_Adult/misaligned/bob_andy.jpg"" alt=""Face 2"">
                </div>
                <h2 class=""trial-question"">Are the top parts of the faces, the yellow parts, the same or different?</h2>
            </div>
        ","1","html-button-response","37","72931","0.0-18.0-1.0","135kmb26u5","","","","","[""https://raw.githubusercontent.com/annapusok731/lookit-stimuli-template/master/test_stimuli/bridget_alexis.jpg"",""https://raw.githubusercontent.com/annapusok731/lookit-stimuli-template/master/test_stimuli/bridget_bridget.jpg""]","","","","","","main","12","same","different","false","same_misaligned","https://raw.githubusercontent.com/annapusok731/composite_face_effect_studies/main/CFE_Adult/misaligned/bob_bob.jpg","https://raw.githubusercontent.com/annapusok731/composite_face_effect_studies/main/CFE_Adult/misaligned/bob_andy.jpg","","","","","",""
"null","<div class=""fixation-cross"">+</div>","null","html-keyboard-response","38","74133","0.0-19.0-0.0","135kmb26u5","","","","","[""https://raw.githubusercontent.com/annapusok731/lookit-stimuli-template/master/test_stimuli/bridget_alexis.jpg"",""https://raw.githubusercontent.com/annapusok731/lookit-stimuli-template/master/test_stimuli/bridget_bridget.jpg""]","","","","","","","","","","","","","","","","","","",""
"470","
            <div style=""text-align: center;"">
                <p style=""color: #666; font-size: 14px; margin-bottom: 20px;"">Trial 13 of 96</p>
                <div class=""face-images"">
                    <img src=""https://raw.githubusercontent.com/annapusok731/composite_face_effect_studies/main/CFE_Adult/misaligned/cody_zack.jpg"" alt=""Face 1"">
                    <img src=""https://raw.githubusercontent.com/annapusok731/composite_face_effect_studies/main/CFE_Adult/misaligned/cody_cody.jpg"" alt=""Face 2"">
                </div>
                <h2 class=""trial-question"">Are the top parts of the faces, the yellow parts, the same or different?</h2>
            </div>
        ","1","html-button-response","39","74605","0.0-19.0-1.0","135kmb26u5","","","","","[""https://raw.githubusercontent.com/annapusok731/lookit-stimuli-template/master/test_stimuli/bridget_alexis.jpg"",""https://raw.githubusercontent.com/annapusok731/lookit-stimuli-template/master/test_stimuli/bridget_bridget.jpg""]","","","","","","main","13","same","different","false","same_misaligned","https://raw.githubusercontent.com/annapusok731/composite_face_effect_studies/main/CFE_Adult/misaligned/cody_zack.jpg","https://raw.githubusercontent.com/annapusok731/composite_face_effect_studies/main/CFE_Adult/misaligned/cody_cody.jpg","","","","","",""
"null","<div class=""fixation-cross"">+</div>","null","html-keyboard-response","40","75807","0.0-20.0-0.0","135kmb26u5","","","","","[""https://raw.githubusercontent.com/annapusok731/lookit-stimuli-template/master/test_stimuli/bridget_alexis.jpg"",""https://raw.githubusercontent.com/annapusok731/lookit-stimuli-template/master/test_stimuli/bridget_bridget.jpg""]","","","","","","","","","","","","","","","","","","",""
"775","
            <div style=""text-align: center;"">
                <p style=""color: #666; font-size: 14px; margin-bottom: 20px;"">Trial 14 of 96</p>
                <div class=""face-images"">
                    <img src=""https://raw.githubusercontent.com/annapusok731/composite_face_effect_studies/main/CFE_Adult/aligned/zack_zack.jpg"" alt=""Face 1"">
                    <img src=""https://raw.githubusercontent.com/annapusok731/composite_face_effect_studies/main/CFE_Adult/aligned/zack_cody.jpg"" alt=""Face 2"">
                </div>
                <h2 class=""trial-question"">Are the top parts of the faces, the yellow parts, the same or different?</h2>
            </div>
        ","1","html-button-response","41","76584","0.0-20.0-1.0","135kmb26u5","","","","","[""https://raw.githubusercontent.com/annapusok731/lookit-stimuli-template/master/test_stimuli/bridget_alexis.jpg"",""https://raw.githubusercontent.com/annapusok731/lookit-stimuli-template/master/test_stimuli/bridget_bridget.jpg""]","","","","","","main","14","same","different","false","same_aligned","https://raw.githubusercontent.com/annapusok731/composite_face_effect_studies/main/CFE_Adult/aligned/zack_zack.jpg","https://raw.githubusercontent.com/annapusok731/composite_face_effect_studies/main/CFE_Adult/aligned/zack_cody.jpg","","","","","",""
"null","<div class=""fixation-cross"">+</div>","null","html-keyboard-response","42","77786","0.0-21.0-0.0","135kmb26u5","","","","","[""https://raw.githubusercontent.com/annapusok731/lookit-stimuli-template/master/test_stimuli/bridget_alexis.jpg"",""https://raw.githubusercontent.com/annapusok731/lookit-stimuli-template/master/test_stimuli/bridget_bridget.jpg""]","","","","","","","","","","","","","","","","","","",""
"772","
            <div style=""text-align: center;"">
                <p style=""color: #666; font-size: 14px; margin-bottom: 20px;"">Trial 15 of 96</p>
                <div class=""face-images"">
                    <img src=""https://raw.githubusercontent.com/annapusok731/composite_face_effect_studies/main/CFE_Adult/aligned/wane_john.jpg"" alt=""Face 1"">
                    <img src=""https://raw.githubusercontent.com/annapusok731/composite_face_effect_studies/main/CFE_Adult/aligned/john_wane.jpg"" alt=""Face 2"">
                </div>
                <h2 class=""trial-question"">Are the top parts of the faces, the yellow parts, the same or different?</h2>
            </div>
        ","1","html-button-response","43","78560","0.0-21.0-1.0","135kmb26u5","","","","","[""https://raw.githubusercontent.com/annapusok731/lookit-stimuli-template/master/test_stimuli/bridget_alexis.jpg"",""https://raw.githubusercontent.com/annapusok731/lookit-stimuli-template/master/test_stimuli/bridget_bridget.jpg""]","","","","","","main","15","different","different","true","diff_align","https://raw.githubusercontent.com/annapusok731/composite_face_effect_studies/main/CFE_Adult/aligned/wane_john.jpg","https://raw.githubusercontent.com/annapusok731/composite_face_effect_studies/main/CFE_Adult/aligned/john_wane.jpg","","","","","",""
"null","<div class=""fixation-cross"">+</div>","null","html-keyboard-response","44","79763","0.0-22.0-0.0","135kmb26u5","","","","","[""https://raw.githubusercontent.com/annapusok731/lookit-stimuli-template/master/test_stimuli/bridget_alexis.jpg"",""https://raw.githubusercontent.com/annapusok731/lookit-stimuli-template/master/test_stimuli/bridget_bridget.jpg""]","","","","","","","","","","","","","","","","","","",""
"562","
            <div style=""text-align: center;"">
                <p style=""color: #666; font-size: 14px; margin-bottom: 20px;"">Trial 16 of 96</p>
                <div class=""face-images"">
                    <img src=""https://raw.githubusercontent.com/annapusok731/composite_face_effect_studies/main/CFE_Adult/misaligned/luca_david.jpg"" alt=""Face 1"">
                    <img src=""https://raw.githubusercontent.com/annapusok731/composite_face_effect_studies/main/CFE_Adult/misaligned/luca_luca.jpg"" alt=""Face 2"">
                </div>
                <h2 class=""trial-question"">Are the top parts of the faces, the yellow parts, the same or different?</h2>
            </div>
        ","1","html-button-response","45","80326","0.0-22.0-1.0","135kmb26u5","","","","","[""https://raw.githubusercontent.com/annapusok731/lookit-stimuli-template/master/test_stimuli/bridget_alexis.jpg"",""https://raw.githubusercontent.com/annapusok731/lookit-stimuli-template/master/test_stimuli/bridget_bridget.jpg""]","","","","","","main","16","same","different","false","same_misaligned","https://raw.githubusercontent.com/annapusok731/composite_face_effect_studies/main/CFE_Adult/misaligned/luca_david.jpg","https://raw.githubusercontent.com/annapusok731/composite_face_effect_studies/main/CFE_Adult/misaligned/luca_luca.jpg","","","","","",""
"null","<div class=""fixation-cross"">+</div>","null","html-keyboard-response","46","81528","0.0-23.0-0.0","135kmb26u5","","","","","[""https://raw.githubusercontent.com/annapusok731/lookit-stimuli-template/master/test_stimuli/bridget_alexis.jpg"",""https://raw.githubusercontent.com/annapusok731/lookit-stimuli-template/master/test_stimuli/bridget_bridget.jpg""]","","","","","","","","","","","","","","","","","","",""
"638","
            <div style=""text-align: center;"">
                <p style=""color: #666; font-size: 14px; margin-bottom: 20px;"">Trial 17 of 96</p>
                <div class=""face-images"">
                    <img src=""https://raw.githubusercontent.com/annapusok731/composite_face_effect_studies/main/CFE_Adult/aligned/rick_alex.jpg"" alt=""Face 1"">
                    <img src=""https://raw.githubusercontent.com/annapusok731/composite_face_effect_studies/main/CFE_Adult/aligned/alex_rick.jpg"" alt=""Face 2"">
                </div>
                <h2 class=""trial-question"">Are the top parts of the faces, the yellow parts, the same or different?</h2>
            </div>
        ","1","html-button-response","47","82167","0.0-23.0-1.0","135kmb26u5","","","","","[""https://raw.githubusercontent.com/annapusok731/lookit-stimuli-template/master/test_stimuli/bridget_alexis.jpg"",""https://raw.githubusercontent.com/annapusok731/lookit-stimuli-template/master/test_stimuli/bridget_bridget.jpg""]","","","","","","main","17","different","different","true","diff_align","https://raw.githubusercontent.com/annapusok731/composite_face_effect_studies/main/CFE_Adult/aligned/rick_alex.jpg","https://raw.githubusercontent.com/annapusok731/composite_face_effect_studies/main/CFE_Adult/aligned/alex_rick.jpg","","","","","",""
"null","<div class=""fixation-cross"">+</div>","null","html-keyboard-response","48","83370","0.0-24.0-0.0","135kmb26u5","","","","","[""https://raw.githubusercontent.com/annapusok731/lookit-stimuli-template/master/test_stimuli/bridget_alexis.jpg"",""https://raw.githubusercontent.com/annapusok731/lookit-stimuli-template/master/test_stimuli/bridget_bridget.jpg""]","","","","","","","","","","","","","","","","","","",""
"581","
            <div style=""text-align: center;"">
                <p style=""color: #666; font-size: 14px; margin-bottom: 20px;"">Trial 18 of 96</p>
                <div class=""face-images"">
                    <img src=""https://raw.githubusercontent.com/annapusok731/composite_face_effect_studies/main/CFE_Adult/misaligned/vanessa_sara.jpg"" alt=""Face 1"">
                    <img src=""https://raw.githubusercontent.com/annapusok731/composite_face_effect_studies/main/CFE_Adult/misaligned/sara_vanessa.jpg"" alt=""Face 2"">
                </div>
                <h2 class=""trial-question"">Are the top parts of the faces, the yellow parts, the same or different?</h2>
            </div>
        ","1","html-button-response","49","83952","0.0-24.0-1.0","135kmb26u5","","","","","[""https://raw.githubusercontent.com/annapusok731/lookit-stimuli-template/master/test_stimuli/bridget_alexis.jpg"",""https://raw.githubusercontent.com/annapusok731/lookit-stimuli-template/master/test_stimuli/bridget_bridget.jpg""]","","","","","","main","18","different","different","true","diff_misalign","https://raw.githubusercontent.com/annapusok731/composite_face_effect_studies/main/CFE_Adult/misaligned/vanessa_sara.jpg","https://raw.githubusercontent.com/annapusok731/composite_face_effect_studies/main/CFE_Adult/misaligned/sara_vanessa.jpg","","","","","",""
"null","<div class=""fixation-cross"">+</div>","null","html-keyboard-response","50","85154","0.0-25.0-0.0","135kmb26u5","","","","","[""https://raw.githubusercontent.com/annapusok731/lookit-stimuli-template/master/test_stimuli/bridget_alexis.jpg"",""https://raw.githubusercontent.com/annapusok731/lookit-stimuli-template/master/test_stimuli/bridget_bridget.jpg""]","","","","","","","","","","","","","","","","","","",""
"537","
            <div style=""text-align: center;"">
                <p style=""color: #666; font-size: 14px; margin-bottom: 20px;"">Trial 19 of 96</p>
                <div class=""face-images"">
                    <img src=""https://raw.githubusercontent.com/annapusok731/composite_face_effect_studies/main/CFE_Adult/misaligned/mimi_kelly.jpg"" alt=""Face 1"">
                    <img src=""https://raw.githubusercontent.com/annapusok731/composite_face_effect_studies/main/CFE_Adult/misaligned/kelly_mimi.jpg"" alt=""Face 2"">
                </div>
                <h2 class=""trial-question"">Are the top parts of the faces, the yellow parts, the same or different?</h2>
            </div>
        ","1","html-button-response","51","85692","0.0-25.0-1.0","135kmb26u5","","","","","[""https://raw.githubusercontent.com/annapusok731/lookit-stimuli-template/master/test_stimuli/bridget_alexis.jpg"",""https://raw.githubusercontent.com/annapusok731/lookit-stimuli-template/master/test_stimuli/bridget_bridget.jpg""]","","","","","","main","19","different","different","true","diff_misalign","https://raw.githubusercontent.com/annapusok731/composite_face_effect_studies/main/CFE_Adult/misaligned/mimi_kelly.jpg","https://raw.githubusercontent.com/annapusok731/composite_face_effect_studies/main/CFE_Adult/misaligned/kelly_mimi.jpg","","","","","",""
"null","<div class=""fixation-cross"">+</div>","null","html-keyboard-response","52","86894","0.0-26.0-0.0","135kmb26u5","","","","","[""https://raw.githubusercontent.com/annapusok731/lookit-stimuli-template/master/test_stimuli/bridget_alexis.jpg"",""https://raw.githubusercontent.com/annapusok731/lookit-stimuli-template/master/test_stimuli/bridget_bridget.jpg""]","","","","","","","","","","","","","","","","","","",""
"580","
            <div style=""text-align: center;"">
                <p style=""color: #666; font-size: 14px; margin-bottom: 20px;"">Trial 20 of 96</p>
                <div class=""face-images"">
                    <img src=""https://raw.githubusercontent.com/annapusok731/composite_face_effect_studies/main/CFE_Adult/aligned/leo_leo.jpg"" alt=""Face 1"">
                    <img src=""https://raw.githubusercontent.com/annapusok731/composite_face_effect_studies/main/CFE_Adult/aligned/leo_oliver.jpg"" alt=""Face 2"">
                </div>
                <h2 class=""trial-question"">Are the top parts of the faces, the yellow parts, the same or different?</h2>
            </div>
        ","1","html-button-response","53","87476","0.0-26.0-1.0","135kmb26u5","","","","","[""https://raw.githubusercontent.com/annapusok731/lookit-stimuli-template/master/test_stimuli/bridget_alexis.jpg"",""https://raw.githubusercontent.com/annapusok731/lookit-stimuli-template/master/test_stimuli/bridget_bridget.jpg""]","","","","","","main","20","same","different","false","same_aligned","https://raw.githubusercontent.com/annapusok731/composite_face_effect_studies/main/CFE_Adult/aligned/leo_leo.jpg","https://raw.githubusercontent.com/annapusok731/composite_face_effect_studies/main/CFE_Adult/aligned/leo_oliver.jpg","","","","","",""
"null","<div class=""fixation-cross"">+</div>","null","html-keyboard-response","54","88678","0.0-27.0-0.0","135kmb26u5","","","","","[""https://raw.githubusercontent.com/annapusok731/lookit-stimuli-template/master/test_stimuli/bridget_alexis.jpg"",""https://raw.githubusercontent.com/annapusok731/lookit-stimuli-template/master/test_stimuli/bridget_bridget.jpg""]","","","","","","","","","","","","","","","","","","",""
"480","
            <div style=""text-align: center;"">
                <p style=""color: #666; font-size: 14px; margin-bottom: 20px;"">Trial 21 of 96</p>
                <div class=""face-images"">
                    <img src=""https://raw.githubusercontent.com/annapusok731/composite_face_effect_studies/main/CFE_Adult/misaligned/luca_david.jpg"" alt=""Face 1"">
                    <img src=""https://raw.githubusercontent.com/annapusok731/composite_face_effect_studies/main/CFE_Adult/misaligned/luca_luca.jpg"" alt=""Face 2"">
                </div>
                <h2 class=""trial-question"">Are the top parts of the faces, the yellow parts, the same or different?</h2>
            </div>
        ","1","html-button-response","55","89159","0.0-27.0-1.0","135kmb26u5","","","","","[""https://raw.githubusercontent.com/annapusok731/lookit-stimuli-template/master/test_stimuli/bridget_alexis.jpg"",""https://raw.githubusercontent.com/annapusok731/lookit-stimuli-template/master/test_stimuli/bridget_bridget.jpg""]","","","","","","main","21","same","different","false","same_misaligned","https://raw.githubusercontent.com/annapusok731/composite_face_effect_studies/main/CFE_Adult/misaligned/luca_david.jpg","https://raw.githubusercontent.com/annapusok731/composite_face_effect_studies/main/CFE_Adult/misaligned/luca_luca.jpg","","","","","",""
"null","<div class=""fixation-cross"">+</div>","null","html-keyboard-response","56","90361","0.0-28.0-0.0","135kmb26u5","","","","","[""https://raw.githubusercontent.com/annapusok731/lookit-stimuli-template/master/test_stimuli/bridget_alexis.jpg"",""https://raw.githubusercontent.com/annapusok731/lookit-stimuli-template/master/test_stimuli/bridget_bridget.jpg""]","","","","","","","","","","","","","","","","","","",""
"485","
            <div style=""text-align: center;"">
                <p style=""color: #666; font-size: 14px; margin-bottom: 20px;"">Trial 22 of 96</p>
                <div class=""face-images"">
                    <img src=""https://raw.githubusercontent.com/annapusok731/composite_face_effect_studies/main/CFE_Adult/aligned/paige_lisa.jpg"" alt=""Face 1"">
                    <img src=""https://raw.githubusercontent.com/annapusok731/composite_face_effect_studies/main/CFE_Adult/aligned/lisa_paige.jpg"" alt=""Face 2"">
                </div>
                <h2 class=""trial-question"">Are the top parts of the faces, the yellow parts, the same or different?</h2>
            </div>
        ","1","html-button-response","57","90848","0.0-28.0-1.0","135kmb26u5","","","","","[""https://raw.githubusercontent.com/annapusok731/lookit-stimuli-template/master/test_stimuli/bridget_alexis.jpg"",""https://raw.githubusercontent.com/annapusok731/lookit-stimuli-template/master/test_stimuli/bridget_bridget.jpg""]","","","","","","main","22","different","different","true","diff_align","https://raw.githubusercontent.com/annapusok731/composite_face_effect_studies/main/CFE_Adult/aligned/paige_lisa.jpg","https://raw.githubusercontent.com/annapusok731/composite_face_effect_studies/main/CFE_Adult/aligned/lisa_paige.jpg","","","","","",""
"null","<div class=""fixation-cross"">+</div>","null","html-keyboard-response","58","92050","0.0-29.0-0.0","135kmb26u5","","","","","[""https://raw.githubusercontent.com/annapusok731/lookit-stimuli-template/master/test_stimuli/bridget_alexis.jpg"",""https://raw.githubusercontent.com/annapusok731/lookit-stimuli-template/master/test_stimuli/bridget_bridget.jpg""]","","","","","","","","","","","","","","","","","","",""
"616","
            <div style=""text-align: center;"">
                <p style=""color: #666; font-size: 14px; margin-bottom: 20px;"">Trial 23 of 96</p>
                <div class=""face-images"">
                    <img src=""https://raw.githubusercontent.com/annapusok731/composite_face_effect_studies/main/CFE_Adult/aligned/emma_lili.jpg"" alt=""Face 1"">
                    <img src=""https://raw.githubusercontent.com/annapusok731/composite_face_effect_studies/main/CFE_Adult/aligned/lili_emma.jpg"" alt=""Face 2"">
                </div>
                <h2 class=""trial-question"">Are the top parts of the faces, the yellow parts, the same or different?</h2>
            </div>
        ","1","html-button-response","59","92667","0.0-29.0-1.0","135kmb26u5","","","","","[""https://raw.githubusercontent.com/annapusok731/lookit-stimuli-template/master/test_stimuli/bridget_alexis.jpg"",""https://raw.githubusercontent.com/annapusok731/lookit-stimuli-template/master/test_stimuli/bridget_bridget.jpg""]","","","","","","main","23","different","different","true","diff_align","https://raw.githubusercontent.com/annapusok731/composite_face_effect_studies/main/CFE_Adult/aligned/emma_lili.jpg","https://raw.githubusercontent.com/annapusok731/composite_face_effect_studies/main/CFE_Adult/aligned/lili_emma.jpg","","","","","",""
"null","<div class=""fixation-cross"">+</div>","null","html-keyboard-response","60","93869","0.0-30.0-0.0","135kmb26u5","","","","","[""https://raw.githubusercontent.com/annapusok731/lookit-stimuli-template/master/test_stimuli/bridget_alexis.jpg"",""https://raw.githubusercontent.com/annapusok731/lookit-stimuli-template/master/test_stimuli/bridget_bridget.jpg""]","","","","","","","","","","","","","","","","","","",""
"589","
            <div style=""text-align: center;"">
                <p style=""color: #666; font-size: 14px; margin-bottom: 20px;"">Trial 24 of 96</p>
                <div class=""face-images"">
                    <img src=""https://raw.githubusercontent.com/annapusok731/composite_face_effect_studies/main/CFE_Adult/aligned/david_luca.jpg"" alt=""Face 1"">
                    <img src=""https://raw.githubusercontent.com/annapusok731/composite_face_effect_studies/main/CFE_Adult/aligned/david_david.jpg"" alt=""Face 2"">
                </div>
                <h2 class=""trial-question"">Are the top parts of the faces, the yellow parts, the same or different?</h2>
            </div>
        ","1","html-button-response","61","94460","0.0-30.0-1.0","135kmb26u5","","","","","[""https://raw.githubusercontent.com/annapusok731/lookit-stimuli-template/master/test_stimuli/bridget_alexis.jpg"",""https://raw.githubusercontent.com/annapusok731/lookit-stimuli-template/master/test_stimuli/bridget_bridget.jpg""]","","","","","","main","24","same","different","false","same_aligned","https://raw.githubusercontent.com/annapusok731/composite_face_effect_studies/main/CFE_Adult/aligned/david_luca.jpg","https://raw.githubusercontent.com/annapusok731/composite_face_effect_studies/main/CFE_Adult/aligned/david_david.jpg","","","","","",""
"null","<div class=""fixation-cross"">+</div>","null","html-keyboard-response","62","95663","0.0-31.0-0.0","135kmb26u5","","","","","[""https://raw.githubusercontent.com/annapusok731/lookit-stimuli-template/master/test_stimuli/bridget_alexis.jpg"",""https://raw.githubusercontent.com/annapusok731/lookit-stimuli-template/master/test_stimuli/bridget_bridget.jpg""]","","","","","","","","","","","","","","","","","","",""
"503","
            <div style=""text-align: center;"">
                <p style=""color: #666; font-size: 14px; margin-bottom: 20px;"">Trial 25 of 96</p>
                <div class=""face-images"">
                    <img src=""https://raw.githubusercontent.com/annapusok731/composite_face_effect_studies/main/CFE_Adult/aligned/amber_amber.jpg"" alt=""Face 1"">
                    <img src=""https://raw.githubusercontent.com/annapusok731/composite_face_effect_studies/main/CFE_Adult/aligned/amber_jess.jpg"" alt=""Face 2"">
                </div>
                <h2 class=""trial-question"">Are the top parts of the faces, the yellow parts, the same or different?</h2>
            </div>
        ","1","html-button-response","63","96167","0.0-31.0-1.0","135kmb26u5","","","","","[""https://raw.githubusercontent.com/annapusok731/lookit-stimuli-template/master/test_stimuli/bridget_alexis.jpg"",""https://raw.githubusercontent.com/annapusok731/lookit-stimuli-template/master/test_stimuli/bridget_bridget.jpg""]","","","","","","main","25","same","different","false","same_aligned","https://raw.githubusercontent.com/annapusok731/composite_face_effect_studies/main/CFE_Adult/aligned/amber_amber.jpg","https://raw.githubusercontent.com/annapusok731/composite_face_effect_studies/main/CFE_Adult/aligned/amber_jess.jpg","","","","","",""
"null","<div class=""fixation-cross"">+</div>","null","html-keyboard-response","64","97369","0.0-32.0-0.0","135kmb26u5","","","","","[""https://raw.githubusercontent.com/annapusok731/lookit-stimuli-template/master/test_stimuli/bridget_alexis.jpg"",""https://raw.githubusercontent.com/annapusok731/lookit-stimuli-template/master/test_stimuli/bridget_bridget.jpg""]","","","","","","","","","","","","","","","","","","",""
"480","
            <div style=""text-align: center;"">
                <p style=""color: #666; font-size: 14px; margin-bottom: 20px;"">Trial 26 of 96</p>
                <div class=""face-images"">
                    <img src=""https://raw.githubusercontent.com/annapusok731/composite_face_effect_studies/main/CFE_Adult/misaligned/wane_john.jpg"" alt=""Face 1"">
                    <img src=""https://raw.githubusercontent.com/annapusok731/composite_face_effect_studies/main/CFE_Adult/misaligned/wane_wane.jpg"" alt=""Face 2"">
                </div>
                <h2 class=""trial-question"">Are the top parts of the faces, the yellow parts, the same or different?</h2>
            </div>
        ","1","html-button-response","65","97851","0.0-32.0-1.0","135kmb26u5","","","","","[""https://raw.githubusercontent.com/annapusok731/lookit-stimuli-template/master/test_stimuli/bridget_alexis.jpg"",""https://raw.githubusercontent.com/annapusok731/lookit-stimuli-template/master/test_stimuli/bridget_bridget.jpg""]","","","","","","main","26","same","different","false","same_misaligned","https://raw.githubusercontent.com/annapusok731/composite_face_effect_studies/main/CFE_Adult/misaligned/wane_john.jpg","https://raw.githubusercontent.com/annapusok731/composite_face_effect_studies/main/CFE_Adult/misaligned/wane_wane.jpg","","","","","",""
"null","<div class=""fixation-cross"">+</div>","null","html-keyboard-response","66","99053","0.0-33.0-0.0","135kmb26u5","","","","","[""https://raw.githubusercontent.com/annapusok731/lookit-stimuli-template/master/test_stimuli/bridget_alexis.jpg"",""https://raw.githubusercontent.com/annapusok731/lookit-stimuli-template/master/test_stimuli/bridget_bridget.jpg""]","","","","","","","","","","","","","","","","","","",""
"576","
            <div style=""text-align: center;"">
                <p style=""color: #666; font-size: 14px; margin-bottom: 20px;"">Trial 27 of 96</p>
                <div class=""face-images"">
                    <img src=""https://raw.githubusercontent.com/annapusok731/composite_face_effect_studies/main/CFE_Adult/aligned/steven_conrad.jpg"" alt=""Face 1"">
                    <img src=""https://raw.githubusercontent.com/annapusok731/composite_face_effect_studies/main/CFE_Adult/aligned/conrad_steven.jpg"" alt=""Face 2"">
                </div>
                <h2 class=""trial-question"">Are the top parts of the faces, the yellow parts, the same or different?</h2>
            </div>
        ","1","html-button-response","67","99630","0.0-33.0-1.0","135kmb26u5","","","","","[""https://raw.githubusercontent.com/annapusok731/lookit-stimuli-template/master/test_stimuli/bridget_alexis.jpg"",""https://raw.githubusercontent.com/annapusok731/lookit-stimuli-template/master/test_stimuli/bridget_bridget.jpg""]","","","","","","main","27","different","different","true","diff_align","https://raw.githubusercontent.com/annapusok731/composite_face_effect_studies/main/CFE_Adult/aligned/steven_conrad.jpg","https://raw.githubusercontent.com/annapusok731/composite_face_effect_studies/main/CFE_Adult/aligned/conrad_steven.jpg","","","","","",""
"null","<div class=""fixation-cross"">+</div>","null","html-keyboard-response","68","100833","0.0-34.0-0.0","135kmb26u5","","","","","[""https://raw.githubusercontent.com/annapusok731/lookit-stimuli-template/master/test_stimuli/bridget_alexis.jpg"",""https://raw.githubusercontent.com/annapusok731/lookit-stimuli-template/master/test_stimuli/bridget_bridget.jpg""]","","","","","","","","","","","","","","","","","","",""
"421","
            <div style=""text-align: center;"">
                <p style=""color: #666; font-size: 14px; margin-bottom: 20px;"">Trial 28 of 96</p>
                <div class=""face-images"">
                    <img src=""https://raw.githubusercontent.com/annapusok731/composite_face_effect_studies/main/CFE_Adult/misaligned/owen_tom.jpg"" alt=""Face 1"">
                    <img src=""https://raw.githubusercontent.com/annapusok731/composite_face_effect_studies/main/CFE_Adult/misaligned/tom_owen.jpg"" alt=""Face 2"">
                </div>
                <h2 class=""trial-question"">Are the top parts of the faces, the yellow parts, the same or different?</h2>
            </div>
        ","1","html-button-response","69","101255","0.0-34.0-1.0","135kmb26u5","","","","","[""https://raw.githubusercontent.com/annapusok731/lookit-stimuli-template/master/test_stimuli/bridget_alexis.jpg"",""https://raw.githubusercontent.com/annapusok731/lookit-stimuli-template/master/test_stimuli/bridget_bridget.jpg""]","","","","","","main","28","different","different","true","diff_misalign","https://raw.githubusercontent.com/annapusok731/composite_face_effect_studies/main/CFE_Adult/misaligned/owen_tom.jpg","https://raw.githubusercontent.com/annapusok731/composite_face_effect_studies/main/CFE_Adult/misaligned/tom_owen.jpg","","","","","",""
"null","<div class=""fixation-cross"">+</div>","null","html-keyboard-response","70","102458","0.0-35.0-0.0","135kmb26u5","","","","","[""https://raw.githubusercontent.com/annapusok731/lookit-stimuli-template/master/test_stimuli/bridget_alexis.jpg"",""https://raw.githubusercontent.com/annapusok731/lookit-stimuli-template/master/test_stimuli/bridget_bridget.jpg""]","","","","","","","","","","","","","","","","","","",""
"562","
            <div style=""text-align: center;"">
                <p style=""color: #666; font-size: 14px; margin-bottom: 20px;"">Trial 29 of 96</p>
                <div class=""face-images"">
                    <img src=""https://raw.githubusercontent.com/annapusok731/composite_face_effect_studies/main/CFE_Adult/misaligned/jason_jason.jpg"" alt=""Face 1"">
                    <img src=""https://raw.githubusercontent.com/annapusok731/composite_face_effect_studies/main/CFE_Adult/misaligned/jason_mike.jpg"" alt=""Face 2"">
                </div>
                <h2 class=""trial-question"">Are the top parts of the faces, the yellow parts, the same or different?</h2>
            </div>
        ","1","html-button-response","71","103021","0.0-35.0-1.0","135kmb26u5","","","","","[""https://raw.githubusercontent.com/annapusok731/lookit-stimuli-template/master/test_stimuli/bridget_alexis.jpg"",""https://raw.githubusercontent.com/annapusok731/lookit-stimuli-template/master/test_stimuli/bridget_bridget.jpg""]","","","","","","main","29","same","different","false","same_misaligned","https://raw.githubusercontent.com/annapusok731/composite_face_effect_studies/main/CFE_Adult/misaligned/jason_jason.jpg","https://raw.githubusercontent.com/annapusok731/composite_face_effect_studies/main/CFE_Adult/misaligned/jason_mike.jpg","","","","","",""
"null","<div class=""fixation-cross"">+</div>","null","html-keyboard-response","72","104224","0.0-36.0-0.0","135kmb26u5","","","","","[""https://raw.githubusercontent.com/annapusok731/lookit-stimuli-template/master/test_stimuli/bridget_alexis.jpg"",""https://raw.githubusercontent.com/annapusok731/lookit-stimuli-template/master/test_stimuli/bridget_bridget.jpg""]","","","","","","","","","","","","","","","","","","",""
"555","
            <div style=""text-align: center;"">
                <p style=""color: #666; font-size: 14px; margin-bottom: 20px;"">Trial 30 of 96</p>
                <div class=""face-images"">
                    <img src=""https://raw.githubusercontent.com/annapusok731/composite_face_effect_studies/main/CFE_Adult/aligned/hanna_hanna.jpg"" alt=""Face 1"">
                    <img src=""https://raw.githubusercontent.com/annapusok731/composite_face_effect_studies/main/CFE_Adult/aligned/hanna_grace.jpg"" alt=""Face 2"">
                </div>
                <h2 class=""trial-question"">Are the top parts of the faces, the yellow parts, the same or different?</h2>
            </div>
        ","1","html-button-response","73","104781","0.0-36.0-1.0","135kmb26u5","","","","","[""https://raw.githubusercontent.com/annapusok731/lookit-stimuli-template/master/test_stimuli/bridget_alexis.jpg"",""https://raw.githubusercontent.com/annapusok731/lookit-stimuli-template/master/test_stimuli/bridget_bridget.jpg""]","","","","","","main","30","same","different","false","same_aligned","https://raw.githubusercontent.com/annapusok731/composite_face_effect_studies/main/CFE_Adult/aligned/hanna_hanna.jpg","https://raw.githubusercontent.com/annapusok731/composite_face_effect_studies/main/CFE_Adult/aligned/hanna_grace.jpg","","","","","",""
"null","<div class=""fixation-cross"">+</div>","null","html-keyboard-response","74","105982","0.0-37.0-0.0","135kmb26u5","","","","","[""https://raw.githubusercontent.com/annapusok731/lookit-stimuli-template/master/test_stimuli/bridget_alexis.jpg"",""https://raw.githubusercontent.com/annapusok731/lookit-stimuli-template/master/test_stimuli/bridget_bridget.jpg""]","","","","","","","","","","","","","","","","","","",""
"571","
            <div style=""text-align: center;"">
                <p style=""color: #666; font-size: 14px; margin-bottom: 20px;"">Trial 31 of 96</p>
                <div class=""face-images"">
                    <img src=""https://raw.githubusercontent.com/annapusok731/composite_face_effect_studies/main/CFE_Adult/aligned/liam_liam.jpg"" alt=""Face 1"">
                    <img src=""https://raw.githubusercontent.com/annapusok731/composite_face_effect_studies/main/CFE_Adult/aligned/liam_carter.jpg"" alt=""Face 2"">
                </div>
                <h2 class=""trial-question"">Are the top parts of the faces, the yellow parts, the same or different?</h2>
            </div>
        ","1","html-button-response","75","106555","0.0-37.0-1.0","135kmb26u5","","","","","[""https://raw.githubusercontent.com/annapusok731/lookit-stimuli-template/master/test_stimuli/bridget_alexis.jpg"",""https://raw.githubusercontent.com/annapusok731/lookit-stimuli-template/master/test_stimuli/bridget_bridget.jpg""]","","","","","","main","31","same","different","false","same_aligned","https://raw.githubusercontent.com/annapusok731/composite_face_effect_studies/main/CFE_Adult/aligned/liam_liam.jpg","https://raw.githubusercontent.com/annapusok731/composite_face_effect_studies/main/CFE_Adult/aligned/liam_carter.jpg","","","","","",""
"null","<div class=""fixation-cross"">+</div>","null","html-keyboard-response","76","107757","0.0-38.0-0.0","135kmb26u5","","","","","[""https://raw.githubusercontent.com/annapusok731/lookit-stimuli-template/master/test_stimuli/bridget_alexis.jpg"",""https://raw.githubusercontent.com/annapusok731/lookit-stimuli-template/master/test_stimuli/bridget_bridget.jpg""]","","","","","","","","","","","","","","","","","","",""
"413","
            <div style=""text-align: center;"">
                <p style=""color: #666; font-size: 14px; margin-bottom: 20px;"">Trial 32 of 96</p>
                <div class=""face-images"">
                    <img src=""https://raw.githubusercontent.com/annapusok731/composite_face_effect_studies/main/CFE_Adult/aligned/mimi_mimi.jpg"" alt=""Face 1"">
                    <img src=""https://raw.githubusercontent.com/annapusok731/composite_face_effect_studies/main/CFE_Adult/aligned/mimi_kelly.jpg"" alt=""Face 2"">
                </div>
                <h2 class=""trial-question"">Are the top parts of the faces, the yellow parts, the same or different?</h2>
            </div>
        ","1","html-button-response","77","108171","0.0-38.0-1.0","135kmb26u5","","","","","[""https://raw.githubusercontent.com/annapusok731/lookit-stimuli-template/master/test_stimuli/bridget_alexis.jpg"",""https://raw.githubusercontent.com/annapusok731/lookit-stimuli-template/master/test_stimuli/bridget_bridget.jpg""]","","","","","","main","32","same","different","false","same_aligned","https://raw.githubusercontent.com/annapusok731/composite_face_effect_studies/main/CFE_Adult/aligned/mimi_mimi.jpg","https://raw.githubusercontent.com/annapusok731/composite_face_effect_studies/main/CFE_Adult/aligned/mimi_kelly.jpg","","","","","",""
"null","<div class=""fixation-cross"">+</div>","null","html-keyboard-response","78","109374","0.0-39.0-0.0","135kmb26u5","","","","","[""https://raw.githubusercontent.com/annapusok731/lookit-stimuli-template/master/test_stimuli/bridget_alexis.jpg"",""https://raw.githubusercontent.com/annapusok731/lookit-stimuli-template/master/test_stimuli/bridget_bridget.jpg""]","","","","","","","","","","","","","","","","","","",""
"671","
            <div style=""text-align: center;"">
                <p style=""color: #666; font-size: 14px; margin-bottom: 20px;"">Trial 33 of 96</p>
                <div class=""face-images"">
                    <img src=""https://raw.githubusercontent.com/annapusok731/composite_face_effect_studies/main/CFE_Adult/misaligned/leo_leo.jpg"" alt=""Face 1"">
                    <img src=""https://raw.githubusercontent.com/annapusok731/composite_face_effect_studies/main/CFE_Adult/misaligned/leo_oliver.jpg"" alt=""Face 2"">
                </div>
                <h2 class=""trial-question"">Are the top parts of the faces, the yellow parts, the same or different?</h2>
            </div>
        ","1","html-button-response","79","110046","0.0-39.0-1.0","135kmb26u5","","","","","[""https://raw.githubusercontent.com/annapusok731/lookit-stimuli-template/master/test_stimuli/bridget_alexis.jpg"",""https://raw.githubusercontent.com/annapusok731/lookit-stimuli-template/master/test_stimuli/bridget_bridget.jpg""]","","","","","","main","33","same","different","false","same_misaligned","https://raw.githubusercontent.com/annapusok731/composite_face_effect_studies/main/CFE_Adult/misaligned/leo_leo.jpg","https://raw.githubusercontent.com/annapusok731/composite_face_effect_studies/main/CFE_Adult/misaligned/leo_oliver.jpg","","","","","",""
"null","<div class=""fixation-cross"">+</div>","null","html-keyboard-response","80","111248","0.0-40.0-0.0","135kmb26u5","","","","","[""https://raw.githubusercontent.com/annapusok731/lookit-stimuli-template/master/test_stimuli/bridget_alexis.jpg"",""https://raw.githubusercontent.com/annapusok731/lookit-stimuli-template/master/test_stimuli/bridget_bridget.jpg""]","","","","","","","","","","","","","","","","","","",""
"606","
            <div style=""text-align: center;"">
                <p style=""color: #666; font-size: 14px; margin-bottom: 20px;"">Trial 34 of 96</p>
                <div class=""face-images"">
                    <img src=""https://raw.githubusercontent.com/annapusok731/composite_face_effect_studies/main/CFE_Adult/misaligned/zoe_beth.jpg"" alt=""Face 1"">
                    <img src=""https://raw.githubusercontent.com/annapusok731/composite_face_effect_studies/main/CFE_Adult/misaligned/zoe_zoe.jpg"" alt=""Face 2"">
                </div>
                <h2 class=""trial-question"">Are the top parts of the faces, the yellow parts, the same or different?</h2>
            </div>
        ","1","html-button-response","81","111854","0.0-40.0-1.0","135kmb26u5","","","","","[""https://raw.githubusercontent.com/annapusok731/lookit-stimuli-template/master/test_stimuli/bridget_alexis.jpg"",""https://raw.githubusercontent.com/annapusok731/lookit-stimuli-template/master/test_stimuli/bridget_bridget.jpg""]","","","","","","main","34","same","different","false","same_misaligned","https://raw.githubusercontent.com/annapusok731/composite_face_effect_studies/main/CFE_Adult/misaligned/zoe_beth.jpg","https://raw.githubusercontent.com/annapusok731/composite_face_effect_studies/main/CFE_Adult/misaligned/zoe_zoe.jpg","","","","","",""
"null","<div class=""fixation-cross"">+</div>","null","html-keyboard-response","82","113056","0.0-41.0-0.0","135kmb26u5","","","","","[""https://raw.githubusercontent.com/annapusok731/lookit-stimuli-template/master/test_stimuli/bridget_alexis.jpg"",""https://raw.githubusercontent.com/annapusok731/lookit-stimuli-template/master/test_stimuli/bridget_bridget.jpg""]","","","","","","","","","","","","","","","","","","",""
"601","
            <div style=""text-align: center;"">
                <p style=""color: #666; font-size: 14px; margin-bottom: 20px;"">Trial 35 of 96</p>
                <div class=""face-images"">
                    <img src=""https://raw.githubusercontent.com/annapusok731/composite_face_effect_studies/main/CFE_Adult/misaligned/andy_bob.jpg"" alt=""Face 1"">
                    <img src=""https://raw.githubusercontent.com/annapusok731/composite_face_effect_studies/main/CFE_Adult/misaligned/bob_andy.jpg"" alt=""Face 2"">
                </div>
                <h2 class=""trial-question"">Are the top parts of the faces, the yellow parts, the same or different?</h2>
            </div>
        ","1","html-button-response","83","113658","0.0-41.0-1.0","135kmb26u5","","","","","[""https://raw.githubusercontent.com/annapusok731/lookit-stimuli-template/master/test_stimuli/bridget_alexis.jpg"",""https://raw.githubusercontent.com/annapusok731/lookit-stimuli-template/master/test_stimuli/bridget_bridget.jpg""]","","","","","","main","35","different","different","true","diff_misalign","https://raw.githubusercontent.com/annapusok731/composite_face_effect_studies/main/CFE_Adult/misaligned/andy_bob.jpg","https://raw.githubusercontent.com/annapusok731/composite_face_effect_studies/main/CFE_Adult/misaligned/bob_andy.jpg","","","","","",""
"null","<div class=""fixation-cross"">+</div>","null","html-keyboard-response","84","114861","0.0-42.0-0.0","135kmb26u5","","","","","[""https://raw.githubusercontent.com/annapusok731/lookit-stimuli-template/master/test_stimuli/bridget_alexis.jpg"",""https://raw.githubusercontent.com/annapusok731/lookit-stimuli-template/master/test_stimuli/bridget_bridget.jpg""]","","","","","","","","","","","","","","","","","","",""
"626","
            <div style=""text-align: center;"">
                <p style=""color: #666; font-size: 14px; margin-bottom: 20px;"">Trial 36 of 96</p>
                <div class=""face-images"">
                    <img src=""https://raw.githubusercontent.com/annapusok731/composite_face_effect_studies/main/CFE_Adult/aligned/mary_tess.jpg"" alt=""Face 1"">
                    <img src=""https://raw.githubusercontent.com/annapusok731/composite_face_effect_studies/main/CFE_Adult/aligned/tess_mary.jpg"" alt=""Face 2"">
                </div>
                <h2 class=""trial-question"">Are the top parts of the faces, the yellow parts, the same or different?</h2>
            </div>
        ","1","html-button-response","85","115488","0.0-42.0-1.0","135kmb26u5","","","","","[""https://raw.githubusercontent.com/annapusok731/lookit-stimuli-template/master/test_stimuli/bridget_alexis.jpg"",""https://raw.githubusercontent.com/annapusok731/lookit-stimuli-template/master/test_stimuli/bridget_bridget.jpg""]","","","","","","main","36","different","different","true","diff_align","https://raw.githubusercontent.com/annapusok731/composite_face_effect_studies/main/CFE_Adult/aligned/mary_tess.jpg","https://raw.githubusercontent.com/annapusok731/composite_face_effect_studies/main/CFE_Adult/aligned/tess_mary.jpg","","","","","",""
"null","<div class=""fixation-cross"">+</div>","null","html-keyboard-response","86","116690","0.0-43.0-0.0","135kmb26u5","","","","","[""https://raw.githubusercontent.com/annapusok731/lookit-stimuli-template/master/test_stimuli/bridget_alexis.jpg"",""https://raw.githubusercontent.com/annapusok731/lookit-stimuli-template/master/test_stimuli/bridget_bridget.jpg""]","","","","","","","","","","","","","","","","","","",""
"709","
            <div style=""text-align: center;"">
                <p style=""color: #666; font-size: 14px; margin-bottom: 20px;"">Trial 37 of 96</p>
                <div class=""face-images"">
                    <img src=""https://raw.githubusercontent.com/annapusok731/composite_face_effect_studies/main/CFE_Adult/misaligned/dan_will.jpg"" alt=""Face 1"">
                    <img src=""https://raw.githubusercontent.com/annapusok731/composite_face_effect_studies/main/CFE_Adult/misaligned/dan_dan.jpg"" alt=""Face 2"">
                </div>
                <h2 class=""trial-question"">Are the top parts of the faces, the yellow parts, the same or different?</h2>
            </div>
        ","1","html-button-response","87","117400","0.0-43.0-1.0","135kmb26u5","","","","","[""https://raw.githubusercontent.com/annapusok731/lookit-stimuli-template/master/test_stimuli/bridget_alexis.jpg"",""https://raw.githubusercontent.com/annapusok731/lookit-stimuli-template/master/test_stimuli/bridget_bridget.jpg""]","","","","","","main","37","same","different","false","same_misaligned","https://raw.githubusercontent.com/annapusok731/composite_face_effect_studies/main/CFE_Adult/misaligned/dan_will.jpg","https://raw.githubusercontent.com/annapusok731/composite_face_effect_studies/main/CFE_Adult/misaligned/dan_dan.jpg","","","","","",""
"null","<div class=""fixation-cross"">+</div>","null","html-keyboard-response","88","118601","0.0-44.0-0.0","135kmb26u5","","","","","[""https://raw.githubusercontent.com/annapusok731/lookit-stimuli-template/master/test_stimuli/bridget_alexis.jpg"",""https://raw.githubusercontent.com/annapusok731/lookit-stimuli-template/master/test_stimuli/bridget_bridget.jpg""]","","","","","","","","","","","","","","","","","","",""
"706","
            <div style=""text-align: center;"">
                <p style=""color: #666; font-size: 14px; margin-bottom: 20px;"">Trial 38 of 96</p>
                <div class=""face-images"">
                    <img src=""https://raw.githubusercontent.com/annapusok731/composite_face_effect_studies/main/CFE_Adult/aligned/carter_liam.jpg"" alt=""Face 1"">
                    <img src=""https://raw.githubusercontent.com/annapusok731/composite_face_effect_studies/main/CFE_Adult/aligned/carter_carter.jpg"" alt=""Face 2"">
                </div>
                <h2 class=""trial-question"">Are the top parts of the faces, the yellow parts, the same or different?</h2>
            </div>
        ","1","html-button-response","89","119308","0.0-44.0-1.0","135kmb26u5","","","","","[""https://raw.githubusercontent.com/annapusok731/lookit-stimuli-template/master/test_stimuli/bridget_alexis.jpg"",""https://raw.githubusercontent.com/annapusok731/lookit-stimuli-template/master/test_stimuli/bridget_bridget.jpg""]","","","","","","main","38","same","different","false","same_aligned","https://raw.githubusercontent.com/annapusok731/composite_face_effect_studies/main/CFE_Adult/aligned/carter_liam.jpg","https://raw.githubusercontent.com/annapusok731/composite_face_effect_studies/main/CFE_Adult/aligned/carter_carter.jpg","","","","","",""
"null","<div class=""fixation-cross"">+</div>","null","html-keyboard-response","90","120511","0.0-45.0-0.0","135kmb26u5","","","","","[""https://raw.githubusercontent.com/annapusok731/lookit-stimuli-template/master/test_stimuli/bridget_alexis.jpg"",""https://raw.githubusercontent.com/annapusok731/lookit-stimuli-template/master/test_stimuli/bridget_bridget.jpg""]","","","","","","","","","","","","","","","","","","",""
"726","
            <div style=""text-align: center;"">
                <p style=""color: #666; font-size: 14px; margin-bottom: 20px;"">Trial 39 of 96</p>
                <div class=""face-images"">
                    <img src=""https://raw.githubusercontent.com/annapusok731/composite_face_effect_studies/main/CFE_Adult/misaligned/luca_luca.jpg"" alt=""Face 1"">
                    <img src=""https://raw.githubusercontent.com/annapusok731/composite_face_effect_studies/main/CFE_Adult/misaligned/luca_david.jpg"" alt=""Face 2"">
                </div>
                <h2 class=""trial-question"">Are the top parts of the faces, the yellow parts, the same or different?</h2>
            </div>
        ","1","html-button-response","91","121238","0.0-45.0-1.0","135kmb26u5","","","","","[""https://raw.githubusercontent.com/annapusok731/lookit-stimuli-template/master/test_stimuli/bridget_alexis.jpg"",""https://raw.githubusercontent.com/annapusok731/lookit-stimuli-template/master/test_stimuli/bridget_bridget.jpg""]","","","","","","main","39","same","different","false","same_misaligned","https://raw.githubusercontent.com/annapusok731/composite_face_effect_studies/main/CFE_Adult/misaligned/luca_luca.jpg","https://raw.githubusercontent.com/annapusok731/composite_face_effect_studies/main/CFE_Adult/misaligned/luca_david.jpg","","","","","",""
"null","<div class=""fixation-cross"">+</div>","null","html-keyboard-response","92","122440","0.0-46.0-0.0","135kmb26u5","","","","","[""https://raw.githubusercontent.com/annapusok731/lookit-stimuli-template/master/test_stimuli/bridget_alexis.jpg"",""https://raw.githubusercontent.com/annapusok731/lookit-stimuli-template/master/test_stimuli/bridget_bridget.jpg""]","","","","","","","","","","","","","","","","","","",""
"446","
            <div style=""text-align: center;"">
                <p style=""color: #666; font-size: 14px; margin-bottom: 20px;"">Trial 40 of 96</p>
                <div class=""face-images"">
                    <img src=""https://raw.githubusercontent.com/annapusok731/composite_face_effect_studies/main/CFE_Adult/misaligned/amber_jess.jpg"" alt=""Face 1"">
                    <img src=""https://raw.githubusercontent.com/annapusok731/composite_face_effect_studies/main/CFE_Adult/misaligned/jess_amber.jpg"" alt=""Face 2"">
                </div>
                <h2 class=""trial-question"">Are the top parts of the faces, the yellow parts, the same or different?</h2>
            </div>
        ","1","html-button-response","93","122887","0.0-46.0-1.0","135kmb26u5","","","","","[""https://raw.githubusercontent.com/annapusok731/lookit-stimuli-template/master/test_stimuli/bridget_alexis.jpg"",""https://raw.githubusercontent.com/annapusok731/lookit-stimuli-template/master/test_stimuli/bridget_bridget.jpg""]","","","","","","main","40","different","different","true","diff_misalign","https://raw.githubusercontent.com/annapusok731/composite_face_effect_studies/main/CFE_Adult/misaligned/amber_jess.jpg","https://raw.githubusercontent.com/annapusok731/composite_face_effect_studies/main/CFE_Adult/misaligned/jess_amber.jpg","","","","","",""
"null","<div class=""fixation-cross"">+</div>","null","html-keyboard-response","94","124090","0.0-47.0-0.0","135kmb26u5","","","","","[""https://raw.githubusercontent.com/annapusok731/lookit-stimuli-template/master/test_stimuli/bridget_alexis.jpg"",""https://raw.githubusercontent.com/annapusok731/lookit-stimuli-template/master/test_stimuli/bridget_bridget.jpg""]","","","","","","","","","","","","","","","","","","",""
"605","
            <div style=""text-align: center;"">
                <p style=""color: #666; font-size: 14px; margin-bottom: 20px;"">Trial 41 of 96</p>
                <div class=""face-images"">
                    <img src=""https://raw.githubusercontent.com/annapusok731/composite_face_effect_studies/main/CFE_Adult/aligned/tess_mary.jpg"" alt=""Face 1"">
                    <img src=""https://raw.githubusercontent.com/annapusok731/composite_face_effect_studies/main/CFE_Adult/aligned/tess_tess.jpg"" alt=""Face 2"">
                </div>
                <h2 class=""trial-question"">Are the top parts of the faces, the yellow parts, the same or different?</h2>
            </div>
        ","1","html-button-response","95","124696","0.0-47.0-1.0","135kmb26u5","","","","","[""https://raw.githubusercontent.com/annapusok731/lookit-stimuli-template/master/test_stimuli/bridget_alexis.jpg"",""https://raw.githubusercontent.com/annapusok731/lookit-stimuli-template/master/test_stimuli/bridget_bridget.jpg""]","","","","","","main","41","same","different","false","same_aligned","https://raw.githubusercontent.com/annapusok731/composite_face_effect_studies/main/CFE_Adult/aligned/tess_mary.jpg","https://raw.githubusercontent.com/annapusok731/composite_face_effect_studies/main/CFE_Adult/aligned/tess_tess.jpg","","","","","",""
"null","<div class=""fixation-cross"">+</div>","null","html-keyboard-response","96","125898","0.0-48.0-0.0","135kmb26u5","","","","","[""https://raw.githubusercontent.com/annapusok731/lookit-stimuli-template/master/test_stimuli/bridget_alexis.jpg"",""https://raw.githubusercontent.com/annapusok731/lookit-stimuli-template/master/test_stimuli/bridget_bridget.jpg""]","","","","","","","","","","","","","","","","","","",""
"800","
            <div style=""text-align: center;"">
                <p style=""color: #666; font-size: 14px; margin-bottom: 20px;"">Trial 42 of 96</p>
                <div class=""face-images"">
                    <img src=""https://raw.githubusercontent.com/annapusok731/composite_face_effect_studies/main/CFE_Adult/misaligned/jess_jess.jpg"" alt=""Face 1"">
                    <img src=""https://raw.githubusercontent.com/annapusok731/composite_face_effect_studies/main/CFE_Adult/misaligned/jess_amber.jpg"" alt=""Face 2"">
                </div>
                <h2 class=""trial-question"">Are the top parts of the faces, the yellow parts, the same or different?</h2>
            </div>
        ","1","html-button-response","97","126700","0.0-48.0-1.0","135kmb26u5","","","","","[""https://raw.githubusercontent.com/annapusok731/lookit-stimuli-template/master/test_stimuli/bridget_alexis.jpg"",""https://raw.githubusercontent.com/annapusok731/lookit-stimuli-template/master/test_stimuli/bridget_bridget.jpg""]","","","","","","main","42","same","different","false","same_misaligned","https://raw.githubusercontent.com/annapusok731/composite_face_effect_studies/main/CFE_Adult/misaligned/jess_jess.jpg","https://raw.githubusercontent.com/annapusok731/composite_face_effect_studies/main/CFE_Adult/misaligned/jess_amber.jpg","","","","","",""
"null","<div class=""fixation-cross"">+</div>","null","html-keyboard-response","98","127902","0.0-49.0-0.0","135kmb26u5","","","","","[""https://raw.githubusercontent.com/annapusok731/lookit-stimuli-template/master/test_stimuli/bridget_alexis.jpg"",""https://raw.githubusercontent.com/annapusok731/lookit-stimuli-template/master/test_stimuli/bridget_bridget.jpg""]","","","","","","","","","","","","","","","","","","",""
"780","
            <div style=""text-align: center;"">
                <p style=""color: #666; font-size: 14px; margin-bottom: 20px;"">Trial 43 of 96</p>
                <div class=""face-images"">
                    <img src=""https://raw.githubusercontent.com/annapusok731/composite_face_effect_studies/main/CFE_Adult/misaligned/beth_zoe.jpg"" alt=""Face 1"">
                    <img src=""https://raw.githubusercontent.com/annapusok731/composite_face_effect_studies/main/CFE_Adult/misaligned/zoe_beth.jpg"" alt=""Face 2"">
                </div>
                <h2 class=""trial-question"">Are the top parts of the faces, the yellow parts, the same or different?</h2>
            </div>
        ","1","html-button-response","99","128683","0.0-49.0-1.0","135kmb26u5","","","","","[""https://raw.githubusercontent.com/annapusok731/lookit-stimuli-template/master/test_stimuli/bridget_alexis.jpg"",""https://raw.githubusercontent.com/annapusok731/lookit-stimuli-template/master/test_stimuli/bridget_bridget.jpg""]","","","","","","main","43","different","different","true","diff_misalign","https://raw.githubusercontent.com/annapusok731/composite_face_effect_studies/main/CFE_Adult/misaligned/beth_zoe.jpg","https://raw.githubusercontent.com/annapusok731/composite_face_effect_studies/main/CFE_Adult/misaligned/zoe_beth.jpg","","","","","",""
"null","<div class=""fixation-cross"">+</div>","null","html-keyboard-response","100","129885","0.0-50.0-0.0","135kmb26u5","","","","","[""https://raw.githubusercontent.com/annapusok731/lookit-stimuli-template/master/test_stimuli/bridget_alexis.jpg"",""https://raw.githubusercontent.com/annapusok731/lookit-stimuli-template/master/test_stimuli/bridget_bridget.jpg""]","","","","","","","","","","","","","","","","","","",""
"863","
            <div style=""text-align: center;"">
                <p style=""color: #666; font-size: 14px; margin-bottom: 20px;"">Trial 44 of 96</p>
                <div class=""face-images"">
                    <img src=""https://raw.githubusercontent.com/annapusok731/composite_face_effect_studies/main/CFE_Adult/aligned/paige_lisa.jpg"" alt=""Face 1"">
                    <img src=""https://raw.githubusercontent.com/annapusok731/composite_face_effect_studies/main/CFE_Adult/aligned/lisa_paige.jpg"" alt=""Face 2"">
                </div>
                <h2 class=""trial-question"">Are the top parts of the faces, the yellow parts, the same or different?</h2>
            </div>
        ","1","html-button-response","101","130750","0.0-50.0-1.0","135kmb26u5","","","","","[""https://raw.githubusercontent.com/annapusok731/lookit-stimuli-template/master/test_stimuli/bridget_alexis.jpg"",""https://raw.githubusercontent.com/annapusok731/lookit-stimuli-template/master/test_stimuli/bridget_bridget.jpg""]","","","","","","main","44","different","different","true","diff_align","https://raw.githubusercontent.com/annapusok731/composite_face_effect_studies/main/CFE_Adult/aligned/paige_lisa.jpg","https://raw.githubusercontent.com/annapusok731/composite_face_effect_studies/main/CFE_Adult/aligned/lisa_paige.jpg","","","","","",""
"null","<div class=""fixation-cross"">+</div>","null","html-keyboard-response","102","131953","0.0-51.0-0.0","135kmb26u5","","","","","[""https://raw.githubusercontent.com/annapusok731/lookit-stimuli-template/master/test_stimuli/bridget_alexis.jpg"",""https://raw.githubusercontent.com/annapusok731/lookit-stimuli-template/master/test_stimuli/bridget_bridget.jpg""]","","","","","","","","","","","","","","","","","","",""
"923","
            <div style=""text-align: center;"">
                <p style=""color: #666; font-size: 14px; margin-bottom: 20px;"">Trial 45 of 96</p>
                <div class=""face-images"">
                    <img src=""https://raw.githubusercontent.com/annapusok731/composite_face_effect_studies/main/CFE_Adult/aligned/hanna_hanna.jpg"" alt=""Face 1"">
                    <img src=""https://raw.githubusercontent.com/annapusok731/composite_face_effect_studies/main/CFE_Adult/aligned/hanna_grace.jpg"" alt=""Face 2"">
                </div>
                <h2 class=""trial-question"">Are the top parts of the faces, the yellow parts, the same or different?</h2>
            </div>
        ","1","html-button-response","103","132877","0.0-51.0-1.0","135kmb26u5","","","","","[""https://raw.githubusercontent.com/annapusok731/lookit-stimuli-template/master/test_stimuli/bridget_alexis.jpg"",""https://raw.githubusercontent.com/annapusok731/lookit-stimuli-template/master/test_stimuli/bridget_bridget.jpg""]","","","","","","main","45","same","different","false","same_aligned","https://raw.githubusercontent.com/annapusok731/composite_face_effect_studies/main/CFE_Adult/aligned/hanna_hanna.jpg","https://raw.githubusercontent.com/annapusok731/composite_face_effect_studies/main/CFE_Adult/aligned/hanna_grace.jpg","","","","","",""
"null","<div class=""fixation-cross"">+</div>","null","html-keyboard-response","104","134079","0.0-52.0-0.0","135kmb26u5","","","","","[""https://raw.githubusercontent.com/annapusok731/lookit-stimuli-template/master/test_stimuli/bridget_alexis.jpg"",""https://raw.githubusercontent.com/annapusok731/lookit-stimuli-template/master/test_stimuli/bridget_bridget.jpg""]","","","","","","","","","","","","","","","","","","",""
"778","
            <div style=""text-align: center;"">
                <p style=""color: #666; font-size: 14px; margin-bottom: 20px;"">Trial 46 of 96</p>
                <div class=""face-images"">
                    <img src=""https://raw.githubusercontent.com/annapusok731/composite_face_effect_studies/main/CFE_Adult/misaligned/vanessa_vanessa.jpg"" alt=""Face 1"">
                    <img src=""https://raw.githubusercontent.com/annapusok731/composite_face_effect_studies/main/CFE_Adult/misaligned/vanessa_sara.jpg"" alt=""Face 2"">
                </div>
                <h2 class=""trial-question"">Are the top parts of the faces, the yellow parts, the same or different?</h2>
            </div>
        ","1","html-button-response","105","134858","0.0-52.0-1.0","135kmb26u5","","","","","[""https://raw.githubusercontent.com/annapusok731/lookit-stimuli-template/master/test_stimuli/bridget_alexis.jpg"",""https://raw.githubusercontent.com/annapusok731/lookit-stimuli-template/master/test_stimuli/bridget_bridget.jpg""]","","","","","","main","46","same","different","false","same_misaligned","https://raw.githubusercontent.com/annapusok731/composite_face_effect_studies/main/CFE_Adult/misaligned/vanessa_vanessa.jpg","https://raw.githubusercontent.com/annapusok731/composite_face_effect_studies/main/CFE_Adult/misaligned/vanessa_sara.jpg","","","","","",""
"null","<div class=""fixation-cross"">+</div>","null","html-keyboard-response","106","136059","0.0-53.0-0.0","135kmb26u5","","","","","[""https://raw.githubusercontent.com/annapusok731/lookit-stimuli-template/master/test_stimuli/bridget_alexis.jpg"",""https://raw.githubusercontent.com/annapusok731/lookit-stimuli-template/master/test_stimuli/bridget_bridget.jpg""]","","","","","","","","","","","","","","","","","","",""
"956","
            <div style=""text-align: center;"">
                <p style=""color: #666; font-size: 14px; margin-bottom: 20px;"">Trial 47 of 96</p>
                <div class=""face-images"">
                    <img src=""https://raw.githubusercontent.com/annapusok731/composite_face_effect_studies/main/CFE_Adult/aligned/will_will.jpg"" alt=""Face 1"">
                    <img src=""https://raw.githubusercontent.com/annapusok731/composite_face_effect_studies/main/CFE_Adult/aligned/will_dan.jpg"" alt=""Face 2"">
                </div>
                <h2 class=""trial-question"">Are the top parts of the faces, the yellow parts, the same or different?</h2>
            </div>
        ","1","html-button-response","107","137016","0.0-53.0-1.0","135kmb26u5","","","","","[""https://raw.githubusercontent.com/annapusok731/lookit-stimuli-template/master/test_stimuli/bridget_alexis.jpg"",""https://raw.githubusercontent.com/annapusok731/lookit-stimuli-template/master/test_stimuli/bridget_bridget.jpg""]","","","","","","main","47","same","different","false","same_aligned","https://raw.githubusercontent.com/annapusok731/composite_face_effect_studies/main/CFE_Adult/aligned/will_will.jpg","https://raw.githubusercontent.com/annapusok731/composite_face_effect_studies/main/CFE_Adult/aligned/will_dan.jpg","","","","","",""
"null","<div class=""fixation-cross"">+</div>","null","html-keyboard-response","108","138218","0.0-54.0-0.0","135kmb26u5","","","","","[""https://raw.githubusercontent.com/annapusok731/lookit-stimuli-template/master/test_stimuli/bridget_alexis.jpg"",""https://raw.githubusercontent.com/annapusok731/lookit-stimuli-template/master/test_stimuli/bridget_bridget.jpg""]","","","","","","","","","","","","","","","","","","",""
"747","
            <div style=""text-align: center;"">
                <p style=""color: #666; font-size: 14px; margin-bottom: 20px;"">Trial 48 of 96</p>
                <div class=""face-images"">
                    <img src=""https://raw.githubusercontent.com/annapusok731/composite_face_effect_studies/main/CFE_Adult/misaligned/conrad_steven.jpg"" alt=""Face 1"">
                    <img src=""https://raw.githubusercontent.com/annapusok731/composite_face_effect_studies/main/CFE_Adult/misaligned/steven_conrad.jpg"" alt=""Face 2"">
                </div>
                <h2 class=""trial-question"">Are the top parts of the faces, the yellow parts, the same or different?</h2>
            </div>
        ","1","html-button-response","109","138966","0.0-54.0-1.0","135kmb26u5","","","","","[""https://raw.githubusercontent.com/annapusok731/lookit-stimuli-template/master/test_stimuli/bridget_alexis.jpg"",""https://raw.githubusercontent.com/annapusok731/lookit-stimuli-template/master/test_stimuli/bridget_bridget.jpg""]","","","","","","main","48","different","different","true","diff_misalign","https://raw.githubusercontent.com/annapusok731/composite_face_effect_studies/main/CFE_Adult/misaligned/conrad_steven.jpg","https://raw.githubusercontent.com/annapusok731/composite_face_effect_studies/main/CFE_Adult/misaligned/steven_conrad.jpg","","","","","",""
"null","<div class=""fixation-cross"">+</div>","null","html-keyboard-response","110","140168","0.0-55.0-0.0","135kmb26u5","","","","","[""https://raw.githubusercontent.com/annapusok731/lookit-stimuli-template/master/test_stimuli/bridget_alexis.jpg"",""https://raw.githubusercontent.com/annapusok731/lookit-stimuli-template/master/test_stimuli/bridget_bridget.jpg""]","","","","","","","","","","","","","","","","","","",""
"848","
            <div style=""text-align: center;"">
                <p style=""color: #666; font-size: 14px; margin-bottom: 20px;"">Trial 49 of 96</p>
                <div class=""face-images"">
                    <img src=""https://raw.githubusercontent.com/annapusok731/composite_face_effect_studies/main/CFE_Adult/misaligned/liv_rose.jpg"" alt=""Face 1"">
                    <img src=""https://raw.githubusercontent.com/annapusok731/composite_face_effect_studies/main/CFE_Adult/misaligned/liv_liv.jpg"" alt=""Face 2"">
                </div>
                <h2 class=""trial-question"">Are the top parts of the faces, the yellow parts, the same or different?</h2>
            </div>
