"rt","stimulus","response","trial_type","trial_index","time_elapsed","internal_node_id","subject_id","timeslot","current_practice_images","success","timeout","failed_images","failed_audio","failed_video","task","trial_number","correct_answer","response_label","correct","response_time_ms","image_left","image_right","condition","question_order","Q1","Q2","Q3","Q4","Q5","Q6","Q7","Q8","Q9","Q10","Q11","Q12","Q13","Q14","Q15","Q16","Q17","Q18","Q19","Q20","Q21","Q22","Q23","Q24","Q25","Q26","Q27","Q28","Q29","Q30","Q31","Q32","Q33","Q34","Q35","Q36","Q37","Q38","Q39","Q40","Q41","Q42","Q43","Q44","Q45","Q46","Q47","Q48","Q49","Q50","Q51","Q52","Q53","Q54","Q55","Q56","Q57","Q58","Q59","Q60","Q61","Q62","Q63","Q64","Q65","srs_total_score","age","race_ethnicity","sex","education","living_status"
"1072","
            <h1>Research Study Consent Form</h1>
            <div class=""consent-content"">
                <p>You are being invited to participate in a research study titled ""Reproducibility of Psychological Science and Instruction."" This study is being done by Dr. Bria Long from UC San Diego and associated graduate students in Experimental Methods course. You were selected to participate in this study because you are an adult in the U.S. and have been a represented population in previous psychology studies.</p>
                
                <p>The purpose of this study is to better understand how well previously published studies in the psychological field replicate online and with different populations. Your participation in this research should last approximately 5-30 minutes. If you agree to take part in this study, you may be asked to view a set of stimuli, including pictures, sounds, written text, or videos and then giving some responses via key-presses, verbally, or with paper-and-pencil. We may also observe your choices or preferences among an array of stimuli. These stimuli will be taken directly from or closely adapted from studies that already exist in the published psychological literature. Stimuli will include, e.g., pictures of objects and human faces, audio and video clips, short text passages, etc. None of the stimuli will be disturbing, threatening, or offensive. The online and in-person experiments described in this protocol will take no more than 30 minutes. An example game you might play would be to click on an image on the screen that matches a word you hear being said out loud. Your total expected time commitment for this study is between 5-30 minutes, and is specified in the study description.</p>
                
                <p>Your participation in this study is completely voluntary and you can withdraw at any time. Choosing not to participate or withdrawing will result in no penalty or loss of benefits to which you are entitled. You are free to skip any question that you choose.</p>
                
                <p>We will not be asking for any personally identifying information, and we will handle responses as confidentially as possible. Your SONA or Prolific IDs will never be tied to your responses on this survey. However, we cannot guarantee the confidentiality of information transmitted over the Internet. To minimize this risk, data containing anything that might be personally identifiable (e.g. Prolific IDs or IP addresses) will be encrypted on transfer and storage and will only be accessible to qualified lab personnel. We will be keeping data collected as part of this experiment indefinitely. This anonymized data (containing neither Prolific IDs nor IP addresses) may be shared with the scientific community or with other participants to be used as stimuli in future studies.</p>
                
                <p>If you have questions about this project or if you have a research-related problem, you may contact the researcher(s), Dr. Bria Long, <a href=""mailto:brlong@ucsd.edu"">brlong@ucsd.edu</a>. If you have any questions concerning your rights as a research subject, you may contact the UC San Diego Office of IRB Administration at <a href=""mailto:irb@ucsd.edu"">irb@ucsd.edu</a> or 858-246-4777.</p>
                
                <p><strong>By participating in this research you are indicating that you are at least 18 years old, have read this consent form, and agree to participate in this research study. Please keep this consent form for your records.</strong></p>
            </div>
        ","0","html-button-response","0","1073","0.0-0.0","1xgybl8gap","November 20, 2025 8:15 PM","[""https://raw.githubusercontent.com/annapusok731/lookit-stimuli-template/master/test_stimuli/bridget_alexis1.jpg"",""https://raw.githubusercontent.com/annapusok731/lookit-stimuli-template/master/test_stimuli/bridget_bridget1.jpg""]","","","","","","","","","","","","","","","","","","","","","","","","","","","","","","","","","","","","","","","","","","","","","","","","","","","","","","","","","","","","","","","","","","","","","","","","","","","","","","","","","","","","","",""
"11800","
            <h1>Timeslot Information</h1>
            <div class=""demographics-form"">
                <div class=""form-group"">
                    <label for=""timeslot"">What is the date/time you signed up for? We will need this information to verify your session and issue your credit within 3 days of participation.</label>
                    <input type=""text"" id=""timeslot"" name=""timeslot"" placeholder=""e.g., Monday 11/18 at 2:00 PM"" required>
                </div>
            </div>
        ","0","html-button-response","1","12873","0.0-1.0","1xgybl8gap","November 20, 2025 8:15 PM","[""https://raw.githubusercontent.com/annapusok731/lookit-stimuli-template/master/test_stimuli/bridget_alexis1.jpg"",""https://raw.githubusercontent.com/annapusok731/lookit-stimuli-template/master/test_stimuli/bridget_bridget1.jpg""]","","","","","","","","","","","","","","","","","","","","","","","","","","","","","","","","","","","","","","","","","","","","","","","","","","","","","","","","","","","","","","","","","","","","","","","","","","","","","","","","","","","","","",""
"10543","
            <h1>Instructions</h1>
            <p>In this task, you will see two pictures of faces side-by-side. They will be visible for a short amount of time.</p>
            <p>You will have to decide whether the top parts of the faces are the same or different.</p>
            <p>To answer, click on either the ""SAME"" or ""DIFFERENT"" buttons below the images.</p>
            <p>Try to answer as quickly as you can.</p>
            <p>There will be two practice trials. Once you click on ""Next"" after the second practice, the experiment will automatically start.</p>
            <p>After the experiment, we ask you to fill out two surveys.</p>
        ","0","html-button-response","2","23417","0.0-2.0","1xgybl8gap","November 20, 2025 8:15 PM","[""https://raw.githubusercontent.com/annapusok731/lookit-stimuli-template/master/test_stimuli/bridget_alexis1.jpg"",""https://raw.githubusercontent.com/annapusok731/lookit-stimuli-template/master/test_stimuli/bridget_bridget1.jpg""]","","","","","","","","","","","","","","","","","","","","","","","","","","","","","","","","","","","","","","","","","","","","","","","","","","","","","","","","","","","","","","","","","","","","","","","","","","","","","","","","","","","","","",""
"","","","preload","3","25093","0.0-3.0","1xgybl8gap","November 20, 2025 8:15 PM","[""https://raw.githubusercontent.com/annapusok731/lookit-stimuli-template/master/test_stimuli/bridget_alexis1.jpg"",""https://raw.githubusercontent.com/annapusok731/lookit-stimuli-template/master/test_stimuli/bridget_bridget1.jpg""]","true","false","[]","[]","[]","","","","","","","","","","","","","","","","","","","","","","","","","","","","","","","","","","","","","","","","","","","","","","","","","","","","","","","","","","","","","","","","","","","","","","","","","","","","","","","","",""
"907","","","fullscreen","4","27006","0.0-4.0","1xgybl8gap","November 20, 2025 8:15 PM","[""https://raw.githubusercontent.com/annapusok731/lookit-stimuli-template/master/test_stimuli/bridget_alexis1.jpg"",""https://raw.githubusercontent.com/annapusok731/lookit-stimuli-template/master/test_stimuli/bridget_bridget1.jpg""]","true","","","","","","","","","","","","","","","","","","","","","","","","","","","","","","","","","","","","","","","","","","","","","","","","","","","","","","","","","","","","","","","","","","","","","","","","","","","","","","","","","","","","",""
"null","<div class=""fixation-cross"">+</div>","null","html-keyboard-response","5","28218","0.0-5.0-0.0","1xgybl8gap","November 20, 2025 8:15 PM","[""https://raw.githubusercontent.com/annapusok731/lookit-stimuli-template/master/test_stimuli/bridget_alexis1.jpg"",""https://raw.githubusercontent.com/annapusok731/lookit-stimuli-template/master/test_stimuli/bridget_bridget1.jpg""]","","","","","","","","","","","","","","","","","","","","","","","","","","","","","","","","","","","","","","","","","","","","","","","","","","","","","","","","","","","","","","","","","","","","","","","","","","","","","","","","","","","","","",""
"null","
            <div style=""text-align: center;"">
                <p style=""color: #666; font-size: 20px; margin-top: 10px; "">Practice Trial 1 of 2</p>
                <div class=""face-images"">
                    <img src=""https://raw.githubusercontent.com/annapusok731/lookit-stimuli-template/master/test_stimuli/william_arnold1.jpg"" alt=""Face 1"">
                    <img src=""https://raw.githubusercontent.com/annapusok731/lookit-stimuli-template/master/test_stimuli/arnold_william1.jpg"" alt=""Face 2"">
                </div>
                <h2 class=""trial-question"">Are the top parts of the faces the same or different?</h2>
            </div>
        ","null","html-button-response","6","29231","0.0-5.0-1.0","1xgybl8gap","November 20, 2025 8:15 PM","[""https://raw.githubusercontent.com/annapusok731/lookit-stimuli-template/master/test_stimuli/bridget_alexis1.jpg"",""https://raw.githubusercontent.com/annapusok731/lookit-stimuli-template/master/test_stimuli/bridget_bridget1.jpg""]","","","","","","practice_viewing","1","","","","","","","","","","","","","","","","","","","","","","","","","","","","","","","","","","","","","","","","","","","","","","","","","","","","","","","","","","","","","","","","","","","","","","","","","","","","","","",""
"1353","<h2 class=""trial-question"">Are the top parts of the faces the same or different?</h2>","1","html-button-response","7","30585","0.0-5.0-2.0","1xgybl8gap","November 20, 2025 8:15 PM","[""https://raw.githubusercontent.com/annapusok731/lookit-stimuli-template/master/test_stimuli/bridget_alexis1.jpg"",""https://raw.githubusercontent.com/annapusok731/lookit-stimuli-template/master/test_stimuli/bridget_bridget1.jpg""]","","","","","","practice","1","different","different","true","1353","","","","","","","","","","","","","","","","","","","","","","","","","","","","","","","","","","","","","","","","","","","","","","","","","","","","","","","","","","","","","","","","","","","","","","","","","","",""
"504","
                                <h1 class=""feedback-correct"">Great job!</h1>
                                <p style=""font-size: 18px; margin-top: 20px;"">The top parts of the faces are different!</p>
                            ","0","html-button-response","8","31089","0.0-5.0-3.0","1xgybl8gap","November 20, 2025 8:15 PM","[""https://raw.githubusercontent.com/annapusok731/lookit-stimuli-template/master/test_stimuli/bridget_alexis1.jpg"",""https://raw.githubusercontent.com/annapusok731/lookit-stimuli-template/master/test_stimuli/bridget_bridget1.jpg""]","","","","","","","","","","","","","","","","","","","","","","","","","","","","","","","","","","","","","","","","","","","","","","","","","","","","","","","","","","","","","","","","","","","","","","","","","","","","","","","","","","","","","",""
"null","<div class=""fixation-cross"">+</div>","null","html-keyboard-response","9","32290","0.0-6.0-0.0","1xgybl8gap","November 20, 2025 8:15 PM","[""https://raw.githubusercontent.com/annapusok731/lookit-stimuli-template/master/test_stimuli/bridget_alexis1.jpg"",""https://raw.githubusercontent.com/annapusok731/lookit-stimuli-template/master/test_stimuli/bridget_bridget1.jpg""]","","","","","","","","","","","","","","","","","","","","","","","","","","","","","","","","","","","","","","","","","","","","","","","","","","","","","","","","","","","","","","","","","","","","","","","","","","","","","","","","","","","","","",""
"null","
            <div style=""text-align: center;"">
                <p style=""color: #666; font-size: 20px; margin-top: 10px; "">Practice Trial 2 of 2</p>
                <div class=""face-images"">
                    <img src=""https://raw.githubusercontent.com/annapusok731/lookit-stimuli-template/master/test_stimuli/bridget_alexis1.jpg"" alt=""Face 1"">
                    <img src=""https://raw.githubusercontent.com/annapusok731/lookit-stimuli-template/master/test_stimuli/bridget_bridget1.jpg"" alt=""Face 2"">
                </div>
                <h2 class=""trial-question"">Are the top parts of the faces the same or different?</h2>
            </div>
        ","null","html-button-response","10","33302","0.0-6.0-1.0","1xgybl8gap","November 20, 2025 8:15 PM","[""https://raw.githubusercontent.com/annapusok731/lookit-stimuli-template/master/test_stimuli/bridget_alexis1.jpg"",""https://raw.githubusercontent.com/annapusok731/lookit-stimuli-template/master/test_stimuli/bridget_bridget1.jpg""]","","","","","","practice_viewing","2","","","","","","","","","","","","","","","","","","","","","","","","","","","","","","","","","","","","","","","","","","","","","","","","","","","","","","","","","","","","","","","","","","","","","","","","","","","","","","",""
"563","<h2 class=""trial-question"">Are the top parts of the faces the same or different?</h2>","0","html-button-response","11","33865","0.0-6.0-2.0","1xgybl8gap","November 20, 2025 8:15 PM","[""https://raw.githubusercontent.com/annapusok731/lookit-stimuli-template/master/test_stimuli/bridget_alexis1.jpg"",""https://raw.githubusercontent.com/annapusok731/lookit-stimuli-template/master/test_stimuli/bridget_bridget1.jpg""]","","","","","","practice","2","same","same","true","563","","","","","","","","","","","","","","","","","","","","","","","","","","","","","","","","","","","","","","","","","","","","","","","","","","","","","","","","","","","","","","","","","","","","","","","","","","",""
"575","
                                <h1 class=""feedback-correct"">Great job!</h1>
                                <p style=""font-size: 18px; margin-top: 20px;"">The top parts of the faces are same!</p>
                            ","0","html-button-response","12","34441","0.0-6.0-3.0","1xgybl8gap","November 20, 2025 8:15 PM","[""https://raw.githubusercontent.com/annapusok731/lookit-stimuli-template/master/test_stimuli/bridget_alexis1.jpg"",""https://raw.githubusercontent.com/annapusok731/lookit-stimuli-template/master/test_stimuli/bridget_bridget1.jpg""]","","","","","","","","","","","","","","","","","","","","","","","","","","","","","","","","","","","","","","","","","","","","","","","","","","","","","","","","","","","","","","","","","","","","","","","","","","","","","","","","","","","","","",""
"480","
            <h1 class=""feedback-correct"">Practice Complete!</h1>
            <p style=""font-size: 18px; margin-top: 20px;"">Great job! Now starting the experiment.</p>
        ","0","html-button-response","13","34921","0.0-7.0","1xgybl8gap","November 20, 2025 8:15 PM","[""https://raw.githubusercontent.com/annapusok731/lookit-stimuli-template/master/test_stimuli/bridget_alexis1.jpg"",""https://raw.githubusercontent.com/annapusok731/lookit-stimuli-template/master/test_stimuli/bridget_bridget1.jpg""]","","","","","","","","","","","","","","","","","","","","","","","","","","","","","","","","","","","","","","","","","","","","","","","","","","","","","","","","","","","","","","","","","","","","","","","","","","","","","","","","","","","","","",""
"null","<div class=""fixation-cross"">+</div>","null","html-keyboard-response","14","36136","0.0-8.0-0.0","1xgybl8gap","November 20, 2025 8:15 PM","[""https://raw.githubusercontent.com/annapusok731/lookit-stimuli-template/master/test_stimuli/bridget_alexis1.jpg"",""https://raw.githubusercontent.com/annapusok731/lookit-stimuli-template/master/test_stimuli/bridget_bridget1.jpg""]","","","","","","","","","","","","","","","","","","","","","","","","","","","","","","","","","","","","","","","","","","","","","","","","","","","","","","","","","","","","","","","","","","","","","","","","","","","","","","","","","","","","","",""
"null","
            <div style=""text-align: center;"">
                <p style=""color: #666; font-size: 20px; margin-top: 10px; "">Trial 1 of 96</p>
                <div class=""face-images"">
                    <img src=""https://raw.githubusercontent.com/annapusok731/composite_face_effect_studies/main/CFE_Adult/misaligned/meredith_meredith.jpg"" alt=""Face 1"">
                    <img src=""https://raw.githubusercontent.com/annapusok731/composite_face_effect_studies/main/CFE_Adult/misaligned/meredith_brianne.jpg"" alt=""Face 2"">
                </div>
                <h2 class=""trial-question"">Are the top parts of the faces the same or different?</h2>
            </div>
        ","null","html-button-response","15","37148","0.0-8.0-1.0","1xgybl8gap","November 20, 2025 8:15 PM","[""https://raw.githubusercontent.com/annapusok731/lookit-stimuli-template/master/test_stimuli/bridget_alexis1.jpg"",""https://raw.githubusercontent.com/annapusok731/lookit-stimuli-template/master/test_stimuli/bridget_bridget1.jpg""]","","","","","","main_viewing","1","","","","","https://raw.githubusercontent.com/annapusok731/composite_face_effect_studies/main/CFE_Adult/misaligned/meredith_meredith.jpg","https://raw.githubusercontent.com/annapusok731/composite_face_effect_studies/main/CFE_Adult/misaligned/meredith_brianne.jpg","","","","","","","","","","","","","","","","","","","","","","","","","","","","","","","","","","","","","","","","","","","","","","","","","","","","","","","","","","","","","","","","","","","","","","","","",""
"436","
                        <div style=""text-align: center;"">
                            <p style=""color: #666; font-size: 20px; margin-top: 10px;"">Trial 1 of 96</p>
                            <h2 class=""trial-question"">Are the top parts of the faces the same or different?</h2>
                        </div>
                    ","0","html-button-response","16","37585","0.0-8.0-2.0","1xgybl8gap","November 20, 2025 8:15 PM","[""https://raw.githubusercontent.com/annapusok731/lookit-stimuli-template/master/test_stimuli/bridget_alexis1.jpg"",""https://raw.githubusercontent.com/annapusok731/lookit-stimuli-template/master/test_stimuli/bridget_bridget1.jpg""]","","","","","","main","1","same","same","true","436","https://raw.githubusercontent.com/annapusok731/composite_face_effect_studies/main/CFE_Adult/misaligned/meredith_meredith.jpg","https://raw.githubusercontent.com/annapusok731/composite_face_effect_studies/main/CFE_Adult/misaligned/meredith_brianne.jpg","same_misaligned","","","","","","","","","","","","","","","","","","","","","","","","","","","","","","","","","","","","","","","","","","","","","","","","","","","","","","","","","","","","","","","","","","","","","","","",""
"null","<div class=""fixation-cross"">+</div>","null","html-keyboard-response","17","38791","0.0-9.0-0.0","1xgybl8gap","November 20, 2025 8:15 PM","[""https://raw.githubusercontent.com/annapusok731/lookit-stimuli-template/master/test_stimuli/bridget_alexis1.jpg"",""https://raw.githubusercontent.com/annapusok731/lookit-stimuli-template/master/test_stimuli/bridget_bridget1.jpg""]","","","","","","","","","","","","","","","","","","","","","","","","","","","","","","","","","","","","","","","","","","","","","","","","","","","","","","","","","","","","","","","","","","","","","","","","","","","","","","","","","","","","","",""
"null","
            <div style=""text-align: center;"">
                <p style=""color: #666; font-size: 20px; margin-top: 10px; "">Trial 2 of 96</p>
                <div class=""face-images"">
                    <img src=""https://raw.githubusercontent.com/annapusok731/composite_face_effect_studies/main/CFE_Adult/misaligned/casper_casper.jpg"" alt=""Face 1"">
                    <img src=""https://raw.githubusercontent.com/annapusok731/composite_face_effect_studies/main/CFE_Adult/misaligned/casper_christian.jpg"" alt=""Face 2"">
                </div>
                <h2 class=""trial-question"">Are the top parts of the faces the same or different?</h2>
            </div>
        ","null","html-button-response","18","39800","0.0-9.0-1.0","1xgybl8gap","November 20, 2025 8:15 PM","[""https://raw.githubusercontent.com/annapusok731/lookit-stimuli-template/master/test_stimuli/bridget_alexis1.jpg"",""https://raw.githubusercontent.com/annapusok731/lookit-stimuli-template/master/test_stimuli/bridget_bridget1.jpg""]","","","","","","main_viewing","2","","","","","https://raw.githubusercontent.com/annapusok731/composite_face_effect_studies/main/CFE_Adult/misaligned/casper_casper.jpg","https://raw.githubusercontent.com/annapusok731/composite_face_effect_studies/main/CFE_Adult/misaligned/casper_christian.jpg","","","","","","","","","","","","","","","","","","","","","","","","","","","","","","","","","","","","","","","","","","","","","","","","","","","","","","","","","","","","","","","","","","","","","","","","",""
"1009","
                        <div style=""text-align: center;"">
                            <p style=""color: #666; font-size: 20px; margin-top: 10px;"">Trial 2 of 96</p>
                            <h2 class=""trial-question"">Are the top parts of the faces the same or different?</h2>
                        </div>
                    ","0","html-button-response","19","40810","0.0-9.0-2.0","1xgybl8gap","November 20, 2025 8:15 PM","[""https://raw.githubusercontent.com/annapusok731/lookit-stimuli-template/master/test_stimuli/bridget_alexis1.jpg"",""https://raw.githubusercontent.com/annapusok731/lookit-stimuli-template/master/test_stimuli/bridget_bridget1.jpg""]","","","","","","main","2","same","same","true","1009","https://raw.githubusercontent.com/annapusok731/composite_face_effect_studies/main/CFE_Adult/misaligned/casper_casper.jpg","https://raw.githubusercontent.com/annapusok731/composite_face_effect_studies/main/CFE_Adult/misaligned/casper_christian.jpg","same_misaligned","","","","","","","","","","","","","","","","","","","","","","","","","","","","","","","","","","","","","","","","","","","","","","","","","","","","","","","","","","","","","","","","","","","","","","","",""
"null","<div class=""fixation-cross"">+</div>","null","html-keyboard-response","20","42015","0.0-10.0-0.0","1xgybl8gap","November 20, 2025 8:15 PM","[""https://raw.githubusercontent.com/annapusok731/lookit-stimuli-template/master/test_stimuli/bridget_alexis1.jpg"",""https://raw.githubusercontent.com/annapusok731/lookit-stimuli-template/master/test_stimuli/bridget_bridget1.jpg""]","","","","","","","","","","","","","","","","","","","","","","","","","","","","","","","","","","","","","","","","","","","","","","","","","","","","","","","","","","","","","","","","","","","","","","","","","","","","","","","","","","","","","",""
"null","
            <div style=""text-align: center;"">
                <p style=""color: #666; font-size: 20px; margin-top: 10px; "">Trial 3 of 96</p>
                <div class=""face-images"">
                    <img src=""https://raw.githubusercontent.com/annapusok731/composite_face_effect_studies/main/CFE_Adult/misaligned/brenda_bridget.jpg"" alt=""Face 1"">
                    <img src=""https://raw.githubusercontent.com/annapusok731/composite_face_effect_studies/main/CFE_Adult/misaligned/bridget_brenda.jpg"" alt=""Face 2"">
                </div>
                <h2 class=""trial-question"">Are the top parts of the faces the same or different?</h2>
            </div>
        ","null","html-button-response","21","43017","0.0-10.0-1.0","1xgybl8gap","November 20, 2025 8:15 PM","[""https://raw.githubusercontent.com/annapusok731/lookit-stimuli-template/master/test_stimuli/bridget_alexis1.jpg"",""https://raw.githubusercontent.com/annapusok731/lookit-stimuli-template/master/test_stimuli/bridget_bridget1.jpg""]","","","","","","main_viewing","3","","","","","https://raw.githubusercontent.com/annapusok731/composite_face_effect_studies/main/CFE_Adult/misaligned/brenda_bridget.jpg","https://raw.githubusercontent.com/annapusok731/composite_face_effect_studies/main/CFE_Adult/misaligned/bridget_brenda.jpg","","","","","","","","","","","","","","","","","","","","","","","","","","","","","","","","","","","","","","","","","","","","","","","","","","","","","","","","","","","","","","","","","","","","","","","","",""
"352","
                        <div style=""text-align: center;"">
                            <p style=""color: #666; font-size: 20px; margin-top: 10px;"">Trial 3 of 96</p>
                            <h2 class=""trial-question"">Are the top parts of the faces the same or different?</h2>
                        </div>
                    ","1","html-button-response","22","43369","0.0-10.0-2.0","1xgybl8gap","November 20, 2025 8:15 PM","[""https://raw.githubusercontent.com/annapusok731/lookit-stimuli-template/master/test_stimuli/bridget_alexis1.jpg"",""https://raw.githubusercontent.com/annapusok731/lookit-stimuli-template/master/test_stimuli/bridget_bridget1.jpg""]","","","","","","main","3","different","different","true","352","https://raw.githubusercontent.com/annapusok731/composite_face_effect_studies/main/CFE_Adult/misaligned/brenda_bridget.jpg","https://raw.githubusercontent.com/annapusok731/composite_face_effect_studies/main/CFE_Adult/misaligned/bridget_brenda.jpg","diff_misalign","","","","","","","","","","","","","","","","","","","","","","","","","","","","","","","","","","","","","","","","","","","","","","","","","","","","","","","","","","","","","","","","","","","","","","","",""
"null","<div class=""fixation-cross"">+</div>","null","html-keyboard-response","23","44582","0.0-11.0-0.0","1xgybl8gap","November 20, 2025 8:15 PM","[""https://raw.githubusercontent.com/annapusok731/lookit-stimuli-template/master/test_stimuli/bridget_alexis1.jpg"",""https://raw.githubusercontent.com/annapusok731/lookit-stimuli-template/master/test_stimuli/bridget_bridget1.jpg""]","","","","","","","","","","","","","","","","","","","","","","","","","","","","","","","","","","","","","","","","","","","","","","","","","","","","","","","","","","","","","","","","","","","","","","","","","","","","","","","","","","","","","",""
"null","
            <div style=""text-align: center;"">
                <p style=""color: #666; font-size: 20px; margin-top: 10px; "">Trial 4 of 96</p>
                <div class=""face-images"">
                    <img src=""https://raw.githubusercontent.com/annapusok731/composite_face_effect_studies/main/CFE_Adult/misaligned/wilson_cameron.jpg"" alt=""Face 1"">
                    <img src=""https://raw.githubusercontent.com/annapusok731/composite_face_effect_studies/main/CFE_Adult/misaligned/cameron_wilson.jpg"" alt=""Face 2"">
                </div>
                <h2 class=""trial-question"">Are the top parts of the faces the same or different?</h2>
            </div>
        ","null","html-button-response","24","45595","0.0-11.0-1.0","1xgybl8gap","November 20, 2025 8:15 PM","[""https://raw.githubusercontent.com/annapusok731/lookit-stimuli-template/master/test_stimuli/bridget_alexis1.jpg"",""https://raw.githubusercontent.com/annapusok731/lookit-stimuli-template/master/test_stimuli/bridget_bridget1.jpg""]","","","","","","main_viewing","4","","","","","https://raw.githubusercontent.com/annapusok731/composite_face_effect_studies/main/CFE_Adult/misaligned/wilson_cameron.jpg","https://raw.githubusercontent.com/annapusok731/composite_face_effect_studies/main/CFE_Adult/misaligned/cameron_wilson.jpg","","","","","","","","","","","","","","","","","","","","","","","","","","","","","","","","","","","","","","","","","","","","","","","","","","","","","","","","","","","","","","","","","","","","","","","","",""
"1613","
                        <div style=""text-align: center;"">
                            <p style=""color: #666; font-size: 20px; margin-top: 10px;"">Trial 4 of 96</p>
                            <h2 class=""trial-question"">Are the top parts of the faces the same or different?</h2>
                        </div>
                    ","0","html-button-response","25","47209","0.0-11.0-2.0","1xgybl8gap","November 20, 2025 8:15 PM","[""https://raw.githubusercontent.com/annapusok731/lookit-stimuli-template/master/test_stimuli/bridget_alexis1.jpg"",""https://raw.githubusercontent.com/annapusok731/lookit-stimuli-template/master/test_stimuli/bridget_bridget1.jpg""]","","","","","","main","4","different","same","false","1613","https://raw.githubusercontent.com/annapusok731/composite_face_effect_studies/main/CFE_Adult/misaligned/wilson_cameron.jpg","https://raw.githubusercontent.com/annapusok731/composite_face_effect_studies/main/CFE_Adult/misaligned/cameron_wilson.jpg","diff_misalign","","","","","","","","","","","","","","","","","","","","","","","","","","","","","","","","","","","","","","","","","","","","","","","","","","","","","","","","","","","","","","","","","","","","","","","",""
"null","<div class=""fixation-cross"">+</div>","null","html-keyboard-response","26","48411","0.0-12.0-0.0","1xgybl8gap","November 20, 2025 8:15 PM","[""https://raw.githubusercontent.com/annapusok731/lookit-stimuli-template/master/test_stimuli/bridget_alexis1.jpg"",""https://raw.githubusercontent.com/annapusok731/lookit-stimuli-template/master/test_stimuli/bridget_bridget1.jpg""]","","","","","","","","","","","","","","","","","","","","","","","","","","","","","","","","","","","","","","","","","","","","","","","","","","","","","","","","","","","","","","","","","","","","","","","","","","","","","","","","","","","","","",""
"null","
            <div style=""text-align: center;"">
                <p style=""color: #666; font-size: 20px; margin-top: 10px; "">Trial 5 of 96</p>
                <div class=""face-images"">
                    <img src=""https://raw.githubusercontent.com/annapusok731/composite_face_effect_studies/main/CFE_Adult/aligned/cam_coop.jpg"" alt=""Face 1"">
                    <img src=""https://raw.githubusercontent.com/annapusok731/composite_face_effect_studies/main/CFE_Adult/aligned/coop_cam.jpg"" alt=""Face 2"">
                </div>
                <h2 class=""trial-question"">Are the top parts of the faces the same or different?</h2>
            </div>
        ","null","html-button-response","27","49417","0.0-12.0-1.0","1xgybl8gap","November 20, 2025 8:15 PM","[""https://raw.githubusercontent.com/annapusok731/lookit-stimuli-template/master/test_stimuli/bridget_alexis1.jpg"",""https://raw.githubusercontent.com/annapusok731/lookit-stimuli-template/master/test_stimuli/bridget_bridget1.jpg""]","","","","","","main_viewing","5","","","","","https://raw.githubusercontent.com/annapusok731/composite_face_effect_studies/main/CFE_Adult/aligned/cam_coop.jpg","https://raw.githubusercontent.com/annapusok731/composite_face_effect_studies/main/CFE_Adult/aligned/coop_cam.jpg","","","","","","","","","","","","","","","","","","","","","","","","","","","","","","","","","","","","","","","","","","","","","","","","","","","","","","","","","","","","","","","","","","","","","","","","",""
"735","
                        <div style=""text-align: center;"">
                            <p style=""color: #666; font-size: 20px; margin-top: 10px;"">Trial 5 of 96</p>
                            <h2 class=""trial-question"">Are the top parts of the faces the same or different?</h2>
                        </div>
                    ","1","html-button-response","28","50153","0.0-12.0-2.0","1xgybl8gap","November 20, 2025 8:15 PM","[""https://raw.githubusercontent.com/annapusok731/lookit-stimuli-template/master/test_stimuli/bridget_alexis1.jpg"",""https://raw.githubusercontent.com/annapusok731/lookit-stimuli-template/master/test_stimuli/bridget_bridget1.jpg""]","","","","","","main","5","different","different","true","735","https://raw.githubusercontent.com/annapusok731/composite_face_effect_studies/main/CFE_Adult/aligned/cam_coop.jpg","https://raw.githubusercontent.com/annapusok731/composite_face_effect_studies/main/CFE_Adult/aligned/coop_cam.jpg","diff_align","","","","","","","","","","","","","","","","","","","","","","","","","","","","","","","","","","","","","","","","","","","","","","","","","","","","","","","","","","","","","","","","","","","","","","","",""
"null","<div class=""fixation-cross"">+</div>","null","html-keyboard-response","29","51359","0.0-13.0-0.0","1xgybl8gap","November 20, 2025 8:15 PM","[""https://raw.githubusercontent.com/annapusok731/lookit-stimuli-template/master/test_stimuli/bridget_alexis1.jpg"",""https://raw.githubusercontent.com/annapusok731/lookit-stimuli-template/master/test_stimuli/bridget_bridget1.jpg""]","","","","","","","","","","","","","","","","","","","","","","","","","","","","","","","","","","","","","","","","","","","","","","","","","","","","","","","","","","","","","","","","","","","","","","","","","","","","","","","","","","","","","",""
"null","
            <div style=""text-align: center;"">
                <p style=""color: #666; font-size: 20px; margin-top: 10px; "">Trial 6 of 96</p>
                <div class=""face-images"">
                    <img src=""https://raw.githubusercontent.com/annapusok731/composite_face_effect_studies/main/CFE_Adult/aligned/skylar_skylar.jpg"" alt=""Face 1"">
                    <img src=""https://raw.githubusercontent.com/annapusok731/composite_face_effect_studies/main/CFE_Adult/aligned/skylar_everly.jpg"" alt=""Face 2"">
                </div>
                <h2 class=""trial-question"">Are the top parts of the faces the same or different?</h2>
            </div>
        ","null","html-button-response","30","52361","0.0-13.0-1.0","1xgybl8gap","November 20, 2025 8:15 PM","[""https://raw.githubusercontent.com/annapusok731/lookit-stimuli-template/master/test_stimuli/bridget_alexis1.jpg"",""https://raw.githubusercontent.com/annapusok731/lookit-stimuli-template/master/test_stimuli/bridget_bridget1.jpg""]","","","","","","main_viewing","6","","","","","https://raw.githubusercontent.com/annapusok731/composite_face_effect_studies/main/CFE_Adult/aligned/skylar_skylar.jpg","https://raw.githubusercontent.com/annapusok731/composite_face_effect_studies/main/CFE_Adult/aligned/skylar_everly.jpg","","","","","","","","","","","","","","","","","","","","","","","","","","","","","","","","","","","","","","","","","","","","","","","","","","","","","","","","","","","","","","","","","","","","","","","","",""
"392","
                        <div style=""text-align: center;"">
                            <p style=""color: #666; font-size: 20px; margin-top: 10px;"">Trial 6 of 96</p>
                            <h2 class=""trial-question"">Are the top parts of the faces the same or different?</h2>
                        </div>
                    ","0","html-button-response","31","52753","0.0-13.0-2.0","1xgybl8gap","November 20, 2025 8:15 PM","[""https://raw.githubusercontent.com/annapusok731/lookit-stimuli-template/master/test_stimuli/bridget_alexis1.jpg"",""https://raw.githubusercontent.com/annapusok731/lookit-stimuli-template/master/test_stimuli/bridget_bridget1.jpg""]","","","","","","main","6","same","same","true","392","https://raw.githubusercontent.com/annapusok731/composite_face_effect_studies/main/CFE_Adult/aligned/skylar_skylar.jpg","https://raw.githubusercontent.com/annapusok731/composite_face_effect_studies/main/CFE_Adult/aligned/skylar_everly.jpg","same_aligned","","","","","","","","","","","","","","","","","","","","","","","","","","","","","","","","","","","","","","","","","","","","","","","","","","","","","","","","","","","","","","","","","","","","","","","",""
"null","<div class=""fixation-cross"">+</div>","null","html-keyboard-response","32","53961","0.0-14.0-0.0","1xgybl8gap","November 20, 2025 8:15 PM","[""https://raw.githubusercontent.com/annapusok731/lookit-stimuli-template/master/test_stimuli/bridget_alexis1.jpg"",""https://raw.githubusercontent.com/annapusok731/lookit-stimuli-template/master/test_stimuli/bridget_bridget1.jpg""]","","","","","","","","","","","","","","","","","","","","","","","","","","","","","","","","","","","","","","","","","","","","","","","","","","","","","","","","","","","","","","","","","","","","","","","","","","","","","","","","","","","","","",""
"null","
            <div style=""text-align: center;"">
                <p style=""color: #666; font-size: 20px; margin-top: 10px; "">Trial 7 of 96</p>
                <div class=""face-images"">
                    <img src=""https://raw.githubusercontent.com/annapusok731/composite_face_effect_studies/main/CFE_Adult/misaligned/paige_lisa.jpg"" alt=""Face 1"">
                    <img src=""https://raw.githubusercontent.com/annapusok731/composite_face_effect_studies/main/CFE_Adult/misaligned/lisa_paige.jpg"" alt=""Face 2"">
                </div>
                <h2 class=""trial-question"">Are the top parts of the faces the same or different?</h2>
            </div>
        ","null","html-button-response","33","54974","0.0-14.0-1.0","1xgybl8gap","November 20, 2025 8:15 PM","[""https://raw.githubusercontent.com/annapusok731/lookit-stimuli-template/master/test_stimuli/bridget_alexis1.jpg"",""https://raw.githubusercontent.com/annapusok731/lookit-stimuli-template/master/test_stimuli/bridget_bridget1.jpg""]","","","","","","main_viewing","7","","","","","https://raw.githubusercontent.com/annapusok731/composite_face_effect_studies/main/CFE_Adult/misaligned/paige_lisa.jpg","https://raw.githubusercontent.com/annapusok731/composite_face_effect_studies/main/CFE_Adult/misaligned/lisa_paige.jpg","","","","","","","","","","","","","","","","","","","","","","","","","","","","","","","","","","","","","","","","","","","","","","","","","","","","","","","","","","","","","","","","","","","","","","","","",""
"354","
                        <div style=""text-align: center;"">
                            <p style=""color: #666; font-size: 20px; margin-top: 10px;"">Trial 7 of 96</p>
                            <h2 class=""trial-question"">Are the top parts of the faces the same or different?</h2>
                        </div>
                    ","1","html-button-response","34","55329","0.0-14.0-2.0","1xgybl8gap","November 20, 2025 8:15 PM","[""https://raw.githubusercontent.com/annapusok731/lookit-stimuli-template/master/test_stimuli/bridget_alexis1.jpg"",""https://raw.githubusercontent.com/annapusok731/lookit-stimuli-template/master/test_stimuli/bridget_bridget1.jpg""]","","","","","","main","7","different","different","true","354","https://raw.githubusercontent.com/annapusok731/composite_face_effect_studies/main/CFE_Adult/misaligned/paige_lisa.jpg","https://raw.githubusercontent.com/annapusok731/composite_face_effect_studies/main/CFE_Adult/misaligned/lisa_paige.jpg","diff_misalign","","","","","","","","","","","","","","","","","","","","","","","","","","","","","","","","","","","","","","","","","","","","","","","","","","","","","","","","","","","","","","","","","","","","","","","",""
"null","<div class=""fixation-cross"">+</div>","null","html-keyboard-response","35","56533","0.0-15.0-0.0","1xgybl8gap","November 20, 2025 8:15 PM","[""https://raw.githubusercontent.com/annapusok731/lookit-stimuli-template/master/test_stimuli/bridget_alexis1.jpg"",""https://raw.githubusercontent.com/annapusok731/lookit-stimuli-template/master/test_stimuli/bridget_bridget1.jpg""]","","","","","","","","","","","","","","","","","","","","","","","","","","","","","","","","","","","","","","","","","","","","","","","","","","","","","","","","","","","","","","","","","","","","","","","","","","","","","","","","","","","","","",""
"null","
            <div style=""text-align: center;"">
                <p style=""color: #666; font-size: 20px; margin-top: 10px; "">Trial 8 of 96</p>
                <div class=""face-images"">
                    <img src=""https://raw.githubusercontent.com/annapusok731/composite_face_effect_studies/main/CFE_Adult/misaligned/daisy_daisy.jpg"" alt=""Face 1"">
                    <img src=""https://raw.githubusercontent.com/annapusok731/composite_face_effect_studies/main/CFE_Adult/misaligned/daisy_tammy.jpg"" alt=""Face 2"">
                </div>
                <h2 class=""trial-question"">Are the top parts of the faces the same or different?</h2>
            </div>
        ","null","html-button-response","36","57538","0.0-15.0-1.0","1xgybl8gap","November 20, 2025 8:15 PM","[""https://raw.githubusercontent.com/annapusok731/lookit-stimuli-template/master/test_stimuli/bridget_alexis1.jpg"",""https://raw.githubusercontent.com/annapusok731/lookit-stimuli-template/master/test_stimuli/bridget_bridget1.jpg""]","","","","","","main_viewing","8","","","","","https://raw.githubusercontent.com/annapusok731/composite_face_effect_studies/main/CFE_Adult/misaligned/daisy_daisy.jpg","https://raw.githubusercontent.com/annapusok731/composite_face_effect_studies/main/CFE_Adult/misaligned/daisy_tammy.jpg","","","","","","","","","","","","","","","","","","","","","","","","","","","","","","","","","","","","","","","","","","","","","","","","","","","","","","","","","","","","","","","","","","","","","","","","",""
"430","
                        <div style=""text-align: center;"">
                            <p style=""color: #666; font-size: 20px; margin-top: 10px;"">Trial 8 of 96</p>
                            <h2 class=""trial-question"">Are the top parts of the faces the same or different?</h2>
                        </div>
                    ","0","html-button-response","37","57969","0.0-15.0-2.0","1xgybl8gap","November 20, 2025 8:15 PM","[""https://raw.githubusercontent.com/annapusok731/lookit-stimuli-template/master/test_stimuli/bridget_alexis1.jpg"",""https://raw.githubusercontent.com/annapusok731/lookit-stimuli-template/master/test_stimuli/bridget_bridget1.jpg""]","","","","","","main","8","same","same","true","430","https://raw.githubusercontent.com/annapusok731/composite_face_effect_studies/main/CFE_Adult/misaligned/daisy_daisy.jpg","https://raw.githubusercontent.com/annapusok731/composite_face_effect_studies/main/CFE_Adult/misaligned/daisy_tammy.jpg","same_misaligned","","","","","","","","","","","","","","","","","","","","","","","","","","","","","","","","","","","","","","","","","","","","","","","","","","","","","","","","","","","","","","","","","","","","","","","",""
"null","<div class=""fixation-cross"">+</div>","null","html-keyboard-response","38","59179","0.0-16.0-0.0","1xgybl8gap","November 20, 2025 8:15 PM","[""https://raw.githubusercontent.com/annapusok731/lookit-stimuli-template/master/test_stimuli/bridget_alexis1.jpg"",""https://raw.githubusercontent.com/annapusok731/lookit-stimuli-template/master/test_stimuli/bridget_bridget1.jpg""]","","","","","","","","","","","","","","","","","","","","","","","","","","","","","","","","","","","","","","","","","","","","","","","","","","","","","","","","","","","","","","","","","","","","","","","","","","","","","","","","","","","","","",""
"null","
            <div style=""text-align: center;"">
                <p style=""color: #666; font-size: 20px; margin-top: 10px; "">Trial 9 of 96</p>
                <div class=""face-images"">
                    <img src=""https://raw.githubusercontent.com/annapusok731/composite_face_effect_studies/main/CFE_Adult/aligned/liv_rose.jpg"" alt=""Face 1"">
                    <img src=""https://raw.githubusercontent.com/annapusok731/composite_face_effect_studies/main/CFE_Adult/aligned/rose_liv.jpg"" alt=""Face 2"">
                </div>
                <h2 class=""trial-question"">Are the top parts of the faces the same or different?</h2>
            </div>
        ","null","html-button-response","39","60189","0.0-16.0-1.0","1xgybl8gap","November 20, 2025 8:15 PM","[""https://raw.githubusercontent.com/annapusok731/lookit-stimuli-template/master/test_stimuli/bridget_alexis1.jpg"",""https://raw.githubusercontent.com/annapusok731/lookit-stimuli-template/master/test_stimuli/bridget_bridget1.jpg""]","","","","","","main_viewing","9","","","","","https://raw.githubusercontent.com/annapusok731/composite_face_effect_studies/main/CFE_Adult/aligned/liv_rose.jpg","https://raw.githubusercontent.com/annapusok731/composite_face_effect_studies/main/CFE_Adult/aligned/rose_liv.jpg","","","","","","","","","","","","","","","","","","","","","","","","","","","","","","","","","","","","","","","","","","","","","","","","","","","","","","","","","","","","","","","","","","","","","","","","",""
"435","
                        <div style=""text-align: center;"">
                            <p style=""color: #666; font-size: 20px; margin-top: 10px;"">Trial 9 of 96</p>
                            <h2 class=""trial-question"">Are the top parts of the faces the same or different?</h2>
                        </div>
                    ","1","html-button-response","40","60625","0.0-16.0-2.0","1xgybl8gap","November 20, 2025 8:15 PM","[""https://raw.githubusercontent.com/annapusok731/lookit-stimuli-template/master/test_stimuli/bridget_alexis1.jpg"",""https://raw.githubusercontent.com/annapusok731/lookit-stimuli-template/master/test_stimuli/bridget_bridget1.jpg""]","","","","","","main","9","different","different","true","435","https://raw.githubusercontent.com/annapusok731/composite_face_effect_studies/main/CFE_Adult/aligned/liv_rose.jpg","https://raw.githubusercontent.com/annapusok731/composite_face_effect_studies/main/CFE_Adult/aligned/rose_liv.jpg","diff_align","","","","","","","","","","","","","","","","","","","","","","","","","","","","","","","","","","","","","","","","","","","","","","","","","","","","","","","","","","","","","","","","","","","","","","","",""
"null","<div class=""fixation-cross"">+</div>","null","html-keyboard-response","41","61838","0.0-17.0-0.0","1xgybl8gap","November 20, 2025 8:15 PM","[""https://raw.githubusercontent.com/annapusok731/lookit-stimuli-template/master/test_stimuli/bridget_alexis1.jpg"",""https://raw.githubusercontent.com/annapusok731/lookit-stimuli-template/master/test_stimuli/bridget_bridget1.jpg""]","","","","","","","","","","","","","","","","","","","","","","","","","","","","","","","","","","","","","","","","","","","","","","","","","","","","","","","","","","","","","","","","","","","","","","","","","","","","","","","","","","","","","",""
"null","
            <div style=""text-align: center;"">
                <p style=""color: #666; font-size: 20px; margin-top: 10px; "">Trial 10 of 96</p>
                <div class=""face-images"">
                    <img src=""https://raw.githubusercontent.com/annapusok731/composite_face_effect_studies/main/CFE_Adult/aligned/david_luca.jpg"" alt=""Face 1"">
                    <img src=""https://raw.githubusercontent.com/annapusok731/composite_face_effect_studies/main/CFE_Adult/aligned/david_david.jpg"" alt=""Face 2"">
                </div>
                <h2 class=""trial-question"">Are the top parts of the faces the same or different?</h2>
            </div>
        ","null","html-button-response","42","62845","0.0-17.0-1.0","1xgybl8gap","November 20, 2025 8:15 PM","[""https://raw.githubusercontent.com/annapusok731/lookit-stimuli-template/master/test_stimuli/bridget_alexis1.jpg"",""https://raw.githubusercontent.com/annapusok731/lookit-stimuli-template/master/test_stimuli/bridget_bridget1.jpg""]","","","","","","main_viewing","10","","","","","https://raw.githubusercontent.com/annapusok731/composite_face_effect_studies/main/CFE_Adult/aligned/david_luca.jpg","https://raw.githubusercontent.com/annapusok731/composite_face_effect_studies/main/CFE_Adult/aligned/david_david.jpg","","","","","","","","","","","","","","","","","","","","","","","","","","","","","","","","","","","","","","","","","","","","","","","","","","","","","","","","","","","","","","","","","","","","","","","","",""
"1299","
                        <div style=""text-align: center;"">
                            <p style=""color: #666; font-size: 20px; margin-top: 10px;"">Trial 10 of 96</p>
                            <h2 class=""trial-question"">Are the top parts of the faces the same or different?</h2>
                        </div>
                    ","0","html-button-response","43","64145","0.0-17.0-2.0","1xgybl8gap","November 20, 2025 8:15 PM","[""https://raw.githubusercontent.com/annapusok731/lookit-stimuli-template/master/test_stimuli/bridget_alexis1.jpg"",""https://raw.githubusercontent.com/annapusok731/lookit-stimuli-template/master/test_stimuli/bridget_bridget1.jpg""]","","","","","","main","10","same","same","true","1299","https://raw.githubusercontent.com/annapusok731/composite_face_effect_studies/main/CFE_Adult/aligned/david_luca.jpg","https://raw.githubusercontent.com/annapusok731/composite_face_effect_studies/main/CFE_Adult/aligned/david_david.jpg","same_aligned","","","","","","","","","","","","","","","","","","","","","","","","","","","","","","","","","","","","","","","","","","","","","","","","","","","","","","","","","","","","","","","","","","","","","","","",""
"null","<div class=""fixation-cross"">+</div>","null","html-keyboard-response","44","65355","0.0-18.0-0.0","1xgybl8gap","November 20, 2025 8:15 PM","[""https://raw.githubusercontent.com/annapusok731/lookit-stimuli-template/master/test_stimuli/bridget_alexis1.jpg"",""https://raw.githubusercontent.com/annapusok731/lookit-stimuli-template/master/test_stimuli/bridget_bridget1.jpg""]","","","","","","","","","","","","","","","","","","","","","","","","","","","","","","","","","","","","","","","","","","","","","","","","","","","","","","","","","","","","","","","","","","","","","","","","","","","","","","","","","","","","","",""
"null","
            <div style=""text-align: center;"">
                <p style=""color: #666; font-size: 20px; margin-top: 10px; "">Trial 11 of 96</p>
                <div class=""face-images"">
                    <img src=""https://raw.githubusercontent.com/annapusok731/composite_face_effect_studies/main/CFE_Adult/misaligned/alexis_tina.jpg"" alt=""Face 1"">
                    <img src=""https://raw.githubusercontent.com/annapusok731/composite_face_effect_studies/main/CFE_Adult/misaligned/tina_alexis.jpg"" alt=""Face 2"">
                </div>
                <h2 class=""trial-question"">Are the top parts of the faces the same or different?</h2>
            </div>
        ","null","html-button-response","45","66356","0.0-18.0-1.0","1xgybl8gap","November 20, 2025 8:15 PM","[""https://raw.githubusercontent.com/annapusok731/lookit-stimuli-template/master/test_stimuli/bridget_alexis1.jpg"",""https://raw.githubusercontent.com/annapusok731/lookit-stimuli-template/master/test_stimuli/bridget_bridget1.jpg""]","","","","","","main_viewing","11","","","","","https://raw.githubusercontent.com/annapusok731/composite_face_effect_studies/main/CFE_Adult/misaligned/alexis_tina.jpg","https://raw.githubusercontent.com/annapusok731/composite_face_effect_studies/main/CFE_Adult/misaligned/tina_alexis.jpg","","","","","","","","","","","","","","","","","","","","","","","","","","","","","","","","","","","","","","","","","","","","","","","","","","","","","","","","","","","","","","","","","","","","","","","","",""
"340","
                        <div style=""text-align: center;"">
                            <p style=""color: #666; font-size: 20px; margin-top: 10px;"">Trial 11 of 96</p>
                            <h2 class=""trial-question"">Are the top parts of the faces the same or different?</h2>
                        </div>
                    ","1","html-button-response","46","66697","0.0-18.0-2.0","1xgybl8gap","November 20, 2025 8:15 PM","[""https://raw.githubusercontent.com/annapusok731/lookit-stimuli-template/master/test_stimuli/bridget_alexis1.jpg"",""https://raw.githubusercontent.com/annapusok731/lookit-stimuli-template/master/test_stimuli/bridget_bridget1.jpg""]","","","","","","main","11","different","different","true","340","https://raw.githubusercontent.com/annapusok731/composite_face_effect_studies/main/CFE_Adult/misaligned/alexis_tina.jpg","https://raw.githubusercontent.com/annapusok731/composite_face_effect_studies/main/CFE_Adult/misaligned/tina_alexis.jpg","diff_misalign","","","","","","","","","","","","","","","","","","","","","","","","","","","","","","","","","","","","","","","","","","","","","","","","","","","","","","","","","","","","","","","","","","","","","","","",""
"null","<div class=""fixation-cross"">+</div>","null","html-keyboard-response","47","67902","0.0-19.0-0.0","1xgybl8gap","November 20, 2025 8:15 PM","[""https://raw.githubusercontent.com/annapusok731/lookit-stimuli-template/master/test_stimuli/bridget_alexis1.jpg"",""https://raw.githubusercontent.com/annapusok731/lookit-stimuli-template/master/test_stimuli/bridget_bridget1.jpg""]","","","","","","","","","","","","","","","","","","","","","","","","","","","","","","","","","","","","","","","","","","","","","","","","","","","","","","","","","","","","","","","","","","","","","","","","","","","","","","","","","","","","","",""
"null","
            <div style=""text-align: center;"">
                <p style=""color: #666; font-size: 20px; margin-top: 10px; "">Trial 12 of 96</p>
                <div class=""face-images"">
                    <img src=""https://raw.githubusercontent.com/annapusok731/composite_face_effect_studies/main/CFE_Adult/aligned/ella_lola.jpg"" alt=""Face 1"">
                    <img src=""https://raw.githubusercontent.com/annapusok731/composite_face_effect_studies/main/CFE_Adult/aligned/lola_ella.jpg"" alt=""Face 2"">
                </div>
                <h2 class=""trial-question"">Are the top parts of the faces the same or different?</h2>
            </div>
        ","null","html-button-response","48","68912","0.0-19.0-1.0","1xgybl8gap","November 20, 2025 8:15 PM","[""https://raw.githubusercontent.com/annapusok731/lookit-stimuli-template/master/test_stimuli/bridget_alexis1.jpg"",""https://raw.githubusercontent.com/annapusok731/lookit-stimuli-template/master/test_stimuli/bridget_bridget1.jpg""]","","","","","","main_viewing","12","","","","","https://raw.githubusercontent.com/annapusok731/composite_face_effect_studies/main/CFE_Adult/aligned/ella_lola.jpg","https://raw.githubusercontent.com/annapusok731/composite_face_effect_studies/main/CFE_Adult/aligned/lola_ella.jpg","","","","","","","","","","","","","","","","","","","","","","","","","","","","","","","","","","","","","","","","","","","","","","","","","","","","","","","","","","","","","","","","","","","","","","","","",""
"337","
                        <div style=""text-align: center;"">
                            <p style=""color: #666; font-size: 20px; margin-top: 10px;"">Trial 12 of 96</p>
                            <h2 class=""trial-question"">Are the top parts of the faces the same or different?</h2>
                        </div>
                    ","1","html-button-response","49","69249","0.0-19.0-2.0","1xgybl8gap","November 20, 2025 8:15 PM","[""https://raw.githubusercontent.com/annapusok731/lookit-stimuli-template/master/test_stimuli/bridget_alexis1.jpg"",""https://raw.githubusercontent.com/annapusok731/lookit-stimuli-template/master/test_stimuli/bridget_bridget1.jpg""]","","","","","","main","12","different","different","true","337","https://raw.githubusercontent.com/annapusok731/composite_face_effect_studies/main/CFE_Adult/aligned/ella_lola.jpg","https://raw.githubusercontent.com/annapusok731/composite_face_effect_studies/main/CFE_Adult/aligned/lola_ella.jpg","diff_align","","","","","","","","","","","","","","","","","","","","","","","","","","","","","","","","","","","","","","","","","","","","","","","","","","","","","","","","","","","","","","","","","","","","","","","",""
"null","<div class=""fixation-cross"">+</div>","null","html-keyboard-response","50","70450","0.0-20.0-0.0","1xgybl8gap","November 20, 2025 8:15 PM","[""https://raw.githubusercontent.com/annapusok731/lookit-stimuli-template/master/test_stimuli/bridget_alexis1.jpg"",""https://raw.githubusercontent.com/annapusok731/lookit-stimuli-template/master/test_stimuli/bridget_bridget1.jpg""]","","","","","","","","","","","","","","","","","","","","","","","","","","","","","","","","","","","","","","","","","","","","","","","","","","","","","","","","","","","","","","","","","","","","","","","","","","","","","","","","","","","","","",""
"null","
            <div style=""text-align: center;"">
                <p style=""color: #666; font-size: 20px; margin-top: 10px; "">Trial 13 of 96</p>
                <div class=""face-images"">
                    <img src=""https://raw.githubusercontent.com/annapusok731/composite_face_effect_studies/main/CFE_Adult/misaligned/lyla_andie.jpg"" alt=""Face 1"">
                    <img src=""https://raw.githubusercontent.com/annapusok731/composite_face_effect_studies/main/CFE_Adult/misaligned/lyla_lyla.jpg"" alt=""Face 2"">
                </div>
                <h2 class=""trial-question"">Are the top parts of the faces the same or different?</h2>
            </div>
        ","null","html-button-response","51","71465","0.0-20.0-1.0","1xgybl8gap","November 20, 2025 8:15 PM","[""https://raw.githubusercontent.com/annapusok731/lookit-stimuli-template/master/test_stimuli/bridget_alexis1.jpg"",""https://raw.githubusercontent.com/annapusok731/lookit-stimuli-template/master/test_stimuli/bridget_bridget1.jpg""]","","","","","","main_viewing","13","","","","","https://raw.githubusercontent.com/annapusok731/composite_face_effect_studies/main/CFE_Adult/misaligned/lyla_andie.jpg","https://raw.githubusercontent.com/annapusok731/composite_face_effect_studies/main/CFE_Adult/misaligned/lyla_lyla.jpg","","","","","","","","","","","","","","","","","","","","","","","","","","","","","","","","","","","","","","","","","","","","","","","","","","","","","","","","","","","","","","","","","","","","","","","","",""
"472","
                        <div style=""text-align: center;"">
                            <p style=""color: #666; font-size: 20px; margin-top: 10px;"">Trial 13 of 96</p>
                            <h2 class=""trial-question"">Are the top parts of the faces the same or different?</h2>
                        </div>
                    ","0","html-button-response","52","71937","0.0-20.0-2.0","1xgybl8gap","November 20, 2025 8:15 PM","[""https://raw.githubusercontent.com/annapusok731/lookit-stimuli-template/master/test_stimuli/bridget_alexis1.jpg"",""https://raw.githubusercontent.com/annapusok731/lookit-stimuli-template/master/test_stimuli/bridget_bridget1.jpg""]","","","","","","main","13","same","same","true","472","https://raw.githubusercontent.com/annapusok731/composite_face_effect_studies/main/CFE_Adult/misaligned/lyla_andie.jpg","https://raw.githubusercontent.com/annapusok731/composite_face_effect_studies/main/CFE_Adult/misaligned/lyla_lyla.jpg","same_misaligned","","","","","","","","","","","","","","","","","","","","","","","","","","","","","","","","","","","","","","","","","","","","","","","","","","","","","","","","","","","","","","","","","","","","","","","",""
"null","<div class=""fixation-cross"">+</div>","null","html-keyboard-response","53","73149","0.0-21.0-0.0","1xgybl8gap","November 20, 2025 8:15 PM","[""https://raw.githubusercontent.com/annapusok731/lookit-stimuli-template/master/test_stimuli/bridget_alexis1.jpg"",""https://raw.githubusercontent.com/annapusok731/lookit-stimuli-template/master/test_stimuli/bridget_bridget1.jpg""]","","","","","","","","","","","","","","","","","","","","","","","","","","","","","","","","","","","","","","","","","","","","","","","","","","","","","","","","","","","","","","","","","","","","","","","","","","","","","","","","","","","","","",""
"null","
            <div style=""text-align: center;"">
                <p style=""color: #666; font-size: 20px; margin-top: 10px; "">Trial 14 of 96</p>
                <div class=""face-images"">
                    <img src=""https://raw.githubusercontent.com/annapusok731/composite_face_effect_studies/main/CFE_Adult/aligned/harry_harry.jpg"" alt=""Face 1"">
                    <img src=""https://raw.githubusercontent.com/annapusok731/composite_face_effect_studies/main/CFE_Adult/aligned/harry_barney.jpg"" alt=""Face 2"">
                </div>
                <h2 class=""trial-question"">Are the top parts of the faces the same or different?</h2>
            </div>
        ","null","html-button-response","54","74159","0.0-21.0-1.0","1xgybl8gap","November 20, 2025 8:15 PM","[""https://raw.githubusercontent.com/annapusok731/lookit-stimuli-template/master/test_stimuli/bridget_alexis1.jpg"",""https://raw.githubusercontent.com/annapusok731/lookit-stimuli-template/master/test_stimuli/bridget_bridget1.jpg""]","","","","","","main_viewing","14","","","","","https://raw.githubusercontent.com/annapusok731/composite_face_effect_studies/main/CFE_Adult/aligned/harry_harry.jpg","https://raw.githubusercontent.com/annapusok731/composite_face_effect_studies/main/CFE_Adult/aligned/harry_barney.jpg","","","","","","","","","","","","","","","","","","","","","","","","","","","","","","","","","","","","","","","","","","","","","","","","","","","","","","","","","","","","","","","","","","","","","","","","",""
"417","
                        <div style=""text-align: center;"">
                            <p style=""color: #666; font-size: 20px; margin-top: 10px;"">Trial 14 of 96</p>
                            <h2 class=""trial-question"">Are the top parts of the faces the same or different?</h2>
                        </div>
                    ","1","html-button-response","55","74577","0.0-21.0-2.0","1xgybl8gap","November 20, 2025 8:15 PM","[""https://raw.githubusercontent.com/annapusok731/lookit-stimuli-template/master/test_stimuli/bridget_alexis1.jpg"",""https://raw.githubusercontent.com/annapusok731/lookit-stimuli-template/master/test_stimuli/bridget_bridget1.jpg""]","","","","","","main","14","same","different","false","417","https://raw.githubusercontent.com/annapusok731/composite_face_effect_studies/main/CFE_Adult/aligned/harry_harry.jpg","https://raw.githubusercontent.com/annapusok731/composite_face_effect_studies/main/CFE_Adult/aligned/harry_barney.jpg","same_aligned","","","","","","","","","","","","","","","","","","","","","","","","","","","","","","","","","","","","","","","","","","","","","","","","","","","","","","","","","","","","","","","","","","","","","","","",""
"null","<div class=""fixation-cross"">+</div>","null","html-keyboard-response","56","75779","0.0-22.0-0.0","1xgybl8gap","November 20, 2025 8:15 PM","[""https://raw.githubusercontent.com/annapusok731/lookit-stimuli-template/master/test_stimuli/bridget_alexis1.jpg"",""https://raw.githubusercontent.com/annapusok731/lookit-stimuli-template/master/test_stimuli/bridget_bridget1.jpg""]","","","","","","","","","","","","","","","","","","","","","","","","","","","","","","","","","","","","","","","","","","","","","","","","","","","","","","","","","","","","","","","","","","","","","","","","","","","","","","","","","","","","","",""
"null","
            <div style=""text-align: center;"">
                <p style=""color: #666; font-size: 20px; margin-top: 10px; "">Trial 15 of 96</p>
                <div class=""face-images"">
                    <img src=""https://raw.githubusercontent.com/annapusok731/composite_face_effect_studies/main/CFE_Adult/misaligned/nora_isabel.jpg"" alt=""Face 1"">
                    <img src=""https://raw.githubusercontent.com/annapusok731/composite_face_effect_studies/main/CFE_Adult/misaligned/isabel_nora.jpg"" alt=""Face 2"">
                </div>
                <h2 class=""trial-question"">Are the top parts of the faces the same or different?</h2>
            </div>
        ","null","html-button-response","57","76791","0.0-22.0-1.0","1xgybl8gap","November 20, 2025 8:15 PM","[""https://raw.githubusercontent.com/annapusok731/lookit-stimuli-template/master/test_stimuli/bridget_alexis1.jpg"",""https://raw.githubusercontent.com/annapusok731/lookit-stimuli-template/master/test_stimuli/bridget_bridget1.jpg""]","","","","","","main_viewing","15","","","","","https://raw.githubusercontent.com/annapusok731/composite_face_effect_studies/main/CFE_Adult/misaligned/nora_isabel.jpg","https://raw.githubusercontent.com/annapusok731/composite_face_effect_studies/main/CFE_Adult/misaligned/isabel_nora.jpg","","","","","","","","","","","","","","","","","","","","","","","","","","","","","","","","","","","","","","","","","","","","","","","","","","","","","","","","","","","","","","","","","","","","","","","","",""
"425","
                        <div style=""text-align: center;"">
                            <p style=""color: #666; font-size: 20px; margin-top: 10px;"">Trial 15 of 96</p>
                            <h2 class=""trial-question"">Are the top parts of the faces the same or different?</h2>
                        </div>
                    ","1","html-button-response","58","77217","0.0-22.0-2.0","1xgybl8gap","November 20, 2025 8:15 PM","[""https://raw.githubusercontent.com/annapusok731/lookit-stimuli-template/master/test_stimuli/bridget_alexis1.jpg"",""https://raw.githubusercontent.com/annapusok731/lookit-stimuli-template/master/test_stimuli/bridget_bridget1.jpg""]","","","","","","main","15","different","different","true","425","https://raw.githubusercontent.com/annapusok731/composite_face_effect_studies/main/CFE_Adult/misaligned/nora_isabel.jpg","https://raw.githubusercontent.com/annapusok731/composite_face_effect_studies/main/CFE_Adult/misaligned/isabel_nora.jpg","diff_misalign","","","","","","","","","","","","","","","","","","","","","","","","","","","","","","","","","","","","","","","","","","","","","","","","","","","","","","","","","","","","","","","","","","","","","","","",""
"null","<div class=""fixation-cross"">+</div>","null","html-keyboard-response","59","78425","0.0-23.0-0.0","1xgybl8gap","November 20, 2025 8:15 PM","[""https://raw.githubusercontent.com/annapusok731/lookit-stimuli-template/master/test_stimuli/bridget_alexis1.jpg"",""https://raw.githubusercontent.com/annapusok731/lookit-stimuli-template/master/test_stimuli/bridget_bridget1.jpg""]","","","","","","","","","","","","","","","","","","","","","","","","","","","","","","","","","","","","","","","","","","","","","","","","","","","","","","","","","","","","","","","","","","","","","","","","","","","","","","","","","","","","","",""
"null","
            <div style=""text-align: center;"">
                <p style=""color: #666; font-size: 20px; margin-top: 10px; "">Trial 16 of 96</p>
                <div class=""face-images"">
                    <img src=""https://raw.githubusercontent.com/annapusok731/composite_face_effect_studies/main/CFE_Adult/misaligned/brian_brant.jpg"" alt=""Face 1"">
                    <img src=""https://raw.githubusercontent.com/annapusok731/composite_face_effect_studies/main/CFE_Adult/misaligned/brian_brian.jpg"" alt=""Face 2"">
                </div>
                <h2 class=""trial-question"">Are the top parts of the faces the same or different?</h2>
            </div>
        ","null","html-button-response","60","79436","0.0-23.0-1.0","1xgybl8gap","November 20, 2025 8:15 PM","[""https://raw.githubusercontent.com/annapusok731/lookit-stimuli-template/master/test_stimuli/bridget_alexis1.jpg"",""https://raw.githubusercontent.com/annapusok731/lookit-stimuli-template/master/test_stimuli/bridget_bridget1.jpg""]","","","","","","main_viewing","16","","","","","https://raw.githubusercontent.com/annapusok731/composite_face_effect_studies/main/CFE_Adult/misaligned/brian_brant.jpg","https://raw.githubusercontent.com/annapusok731/composite_face_effect_studies/main/CFE_Adult/misaligned/brian_brian.jpg","","","","","","","","","","","","","","","","","","","","","","","","","","","","","","","","","","","","","","","","","","","","","","","","","","","","","","","","","","","","","","","","","","","","","","","","",""
"732","
                        <div style=""text-align: center;"">
                            <p style=""color: #666; font-size: 20px; margin-top: 10px;"">Trial 16 of 96</p>
                            <h2 class=""trial-question"">Are the top parts of the faces the same or different?</h2>
                        </div>
                    ","0","html-button-response","61","80169","0.0-23.0-2.0","1xgybl8gap","November 20, 2025 8:15 PM","[""https://raw.githubusercontent.com/annapusok731/lookit-stimuli-template/master/test_stimuli/bridget_alexis1.jpg"",""https://raw.githubusercontent.com/annapusok731/lookit-stimuli-template/master/test_stimuli/bridget_bridget1.jpg""]","","","","","","main","16","same","same","true","732","https://raw.githubusercontent.com/annapusok731/composite_face_effect_studies/main/CFE_Adult/misaligned/brian_brant.jpg","https://raw.githubusercontent.com/annapusok731/composite_face_effect_studies/main/CFE_Adult/misaligned/brian_brian.jpg","same_misaligned","","","","","","","","","","","","","","","","","","","","","","","","","","","","","","","","","","","","","","","","","","","","","","","","","","","","","","","","","","","","","","","","","","","","","","","",""
"null","<div class=""fixation-cross"">+</div>","null","html-keyboard-response","62","81376","0.0-24.0-0.0","1xgybl8gap","November 20, 2025 8:15 PM","[""https://raw.githubusercontent.com/annapusok731/lookit-stimuli-template/master/test_stimuli/bridget_alexis1.jpg"",""https://raw.githubusercontent.com/annapusok731/lookit-stimuli-template/master/test_stimuli/bridget_bridget1.jpg""]","","","","","","","","","","","","","","","","","","","","","","","","","","","","","","","","","","","","","","","","","","","","","","","","","","","","","","","","","","","","","","","","","","","","","","","","","","","","","","","","","","","","","",""
"null","
            <div style=""text-align: center;"">
                <p style=""color: #666; font-size: 20px; margin-top: 10px; "">Trial 17 of 96</p>
                <div class=""face-images"">
                    <img src=""https://raw.githubusercontent.com/annapusok731/composite_face_effect_studies/main/CFE_Adult/misaligned/conrad_conrad.jpg"" alt=""Face 1"">
                    <img src=""https://raw.githubusercontent.com/annapusok731/composite_face_effect_studies/main/CFE_Adult/misaligned/conrad_steven.jpg"" alt=""Face 2"">
                </div>
                <h2 class=""trial-question"">Are the top parts of the faces the same or different?</h2>
            </div>
        ","null","html-button-response","63","82388","0.0-24.0-1.0","1xgybl8gap","November 20, 2025 8:15 PM","[""https://raw.githubusercontent.com/annapusok731/lookit-stimuli-template/master/test_stimuli/bridget_alexis1.jpg"",""https://raw.githubusercontent.com/annapusok731/lookit-stimuli-template/master/test_stimuli/bridget_bridget1.jpg""]","","","","","","main_viewing","17","","","","","https://raw.githubusercontent.com/annapusok731/composite_face_effect_studies/main/CFE_Adult/misaligned/conrad_conrad.jpg","https://raw.githubusercontent.com/annapusok731/composite_face_effect_studies/main/CFE_Adult/misaligned/conrad_steven.jpg","","","","","","","","","","","","","","","","","","","","","","","","","","","","","","","","","","","","","","","","","","","","","","","","","","","","","","","","","","","","","","","","","","","","","","","","",""
"364","
                        <div style=""text-align: center;"">
                            <p style=""color: #666; font-size: 20px; margin-top: 10px;"">Trial 17 of 96</p>
                            <h2 class=""trial-question"">Are the top parts of the faces the same or different?</h2>
                        </div>
                    ","0","html-button-response","64","82753","0.0-24.0-2.0","1xgybl8gap","November 20, 2025 8:15 PM","[""https://raw.githubusercontent.com/annapusok731/lookit-stimuli-template/master/test_stimuli/bridget_alexis1.jpg"",""https://raw.githubusercontent.com/annapusok731/lookit-stimuli-template/master/test_stimuli/bridget_bridget1.jpg""]","","","","","","main","17","same","same","true","364","https://raw.githubusercontent.com/annapusok731/composite_face_effect_studies/main/CFE_Adult/misaligned/conrad_conrad.jpg","https://raw.githubusercontent.com/annapusok731/composite_face_effect_studies/main/CFE_Adult/misaligned/conrad_steven.jpg","same_misaligned","","","","","","","","","","","","","","","","","","","","","","","","","","","","","","","","","","","","","","","","","","","","","","","","","","","","","","","","","","","","","","","","","","","","","","","",""
"null","<div class=""fixation-cross"">+</div>","null","html-keyboard-response","65","83961","0.0-25.0-0.0","1xgybl8gap","November 20, 2025 8:15 PM","[""https://raw.githubusercontent.com/annapusok731/lookit-stimuli-template/master/test_stimuli/bridget_alexis1.jpg"",""https://raw.githubusercontent.com/annapusok731/lookit-stimuli-template/master/test_stimuli/bridget_bridget1.jpg""]","","","","","","","","","","","","","","","","","","","","","","","","","","","","","","","","","","","","","","","","","","","","","","","","","","","","","","","","","","","","","","","","","","","","","","","","","","","","","","","","","","","","","",""
"null","
            <div style=""text-align: center;"">
                <p style=""color: #666; font-size: 20px; margin-top: 10px; "">Trial 18 of 96</p>
                <div class=""face-images"">
                    <img src=""https://raw.githubusercontent.com/annapusok731/composite_face_effect_studies/main/CFE_Adult/misaligned/dolly_laura.jpg"" alt=""Face 1"">
                    <img src=""https://raw.githubusercontent.com/annapusok731/composite_face_effect_studies/main/CFE_Adult/misaligned/dolly_dolly.jpg"" alt=""Face 2"">
                </div>
                <h2 class=""trial-question"">Are the top parts of the faces the same or different?</h2>
            </div>
        ","null","html-button-response","66","84970","0.0-25.0-1.0","1xgybl8gap","November 20, 2025 8:15 PM","[""https://raw.githubusercontent.com/annapusok731/lookit-stimuli-template/master/test_stimuli/bridget_alexis1.jpg"",""https://raw.githubusercontent.com/annapusok731/lookit-stimuli-template/master/test_stimuli/bridget_bridget1.jpg""]","","","","","","main_viewing","18","","","","","https://raw.githubusercontent.com/annapusok731/composite_face_effect_studies/main/CFE_Adult/misaligned/dolly_laura.jpg","https://raw.githubusercontent.com/annapusok731/composite_face_effect_studies/main/CFE_Adult/misaligned/dolly_dolly.jpg","","","","","","","","","","","","","","","","","","","","","","","","","","","","","","","","","","","","","","","","","","","","","","","","","","","","","","","","","","","","","","","","","","","","","","","","",""
"278","
                        <div style=""text-align: center;"">
                            <p style=""color: #666; font-size: 20px; margin-top: 10px;"">Trial 18 of 96</p>
                            <h2 class=""trial-question"">Are the top parts of the faces the same or different?</h2>
                        </div>
                    ","0","html-button-response","67","85249","0.0-25.0-2.0","1xgybl8gap","November 20, 2025 8:15 PM","[""https://raw.githubusercontent.com/annapusok731/lookit-stimuli-template/master/test_stimuli/bridget_alexis1.jpg"",""https://raw.githubusercontent.com/annapusok731/lookit-stimuli-template/master/test_stimuli/bridget_bridget1.jpg""]","","","","","","main","18","same","same","true","278","https://raw.githubusercontent.com/annapusok731/composite_face_effect_studies/main/CFE_Adult/misaligned/dolly_laura.jpg","https://raw.githubusercontent.com/annapusok731/composite_face_effect_studies/main/CFE_Adult/misaligned/dolly_dolly.jpg","same_misaligned","","","","","","","","","","","","","","","","","","","","","","","","","","","","","","","","","","","","","","","","","","","","","","","","","","","","","","","","","","","","","","","","","","","","","","","",""
"null","<div class=""fixation-cross"">+</div>","null","html-keyboard-response","68","86459","0.0-26.0-0.0","1xgybl8gap","November 20, 2025 8:15 PM","[""https://raw.githubusercontent.com/annapusok731/lookit-stimuli-template/master/test_stimuli/bridget_alexis1.jpg"",""https://raw.githubusercontent.com/annapusok731/lookit-stimuli-template/master/test_stimuli/bridget_bridget1.jpg""]","","","","","","","","","","","","","","","","","","","","","","","","","","","","","","","","","","","","","","","","","","","","","","","","","","","","","","","","","","","","","","","","","","","","","","","","","","","","","","","","","","","","","",""
"null","
            <div style=""text-align: center;"">
                <p style=""color: #666; font-size: 20px; margin-top: 10px; "">Trial 19 of 96</p>
                <div class=""face-images"">
                    <img src=""https://raw.githubusercontent.com/annapusok731/composite_face_effect_studies/main/CFE_Adult/aligned/james_ted.jpg"" alt=""Face 1"">
                    <img src=""https://raw.githubusercontent.com/annapusok731/composite_face_effect_studies/main/CFE_Adult/aligned/ted_james.jpg"" alt=""Face 2"">
                </div>
                <h2 class=""trial-question"">Are the top parts of the faces the same or different?</h2>
            </div>
        ","null","html-button-response","69","87471","0.0-26.0-1.0","1xgybl8gap","November 20, 2025 8:15 PM","[""https://raw.githubusercontent.com/annapusok731/lookit-stimuli-template/master/test_stimuli/bridget_alexis1.jpg"",""https://raw.githubusercontent.com/annapusok731/lookit-stimuli-template/master/test_stimuli/bridget_bridget1.jpg""]","","","","","","main_viewing","19","","","","","https://raw.githubusercontent.com/annapusok731/composite_face_effect_studies/main/CFE_Adult/aligned/james_ted.jpg","https://raw.githubusercontent.com/annapusok731/composite_face_effect_studies/main/CFE_Adult/aligned/ted_james.jpg","","","","","","","","","","","","","","","","","","","","","","","","","","","","","","","","","","","","","","","","","","","","","","","","","","","","","","","","","","","","","","","","","","","","","","","","",""
"353","
                        <div style=""text-align: center;"">
                            <p style=""color: #666; font-size: 20px; margin-top: 10px;"">Trial 19 of 96</p>
                            <h2 class=""trial-question"">Are the top parts of the faces the same or different?</h2>
                        </div>
                    ","1","html-button-response","70","87825","0.0-26.0-2.0","1xgybl8gap","November 20, 2025 8:15 PM","[""https://raw.githubusercontent.com/annapusok731/lookit-stimuli-template/master/test_stimuli/bridget_alexis1.jpg"",""https://raw.githubusercontent.com/annapusok731/lookit-stimuli-template/master/test_stimuli/bridget_bridget1.jpg""]","","","","","","main","19","different","different","true","353","https://raw.githubusercontent.com/annapusok731/composite_face_effect_studies/main/CFE_Adult/aligned/james_ted.jpg","https://raw.githubusercontent.com/annapusok731/composite_face_effect_studies/main/CFE_Adult/aligned/ted_james.jpg","diff_align","","","","","","","","","","","","","","","","","","","","","","","","","","","","","","","","","","","","","","","","","","","","","","","","","","","","","","","","","","","","","","","","","","","","","","","",""
"null","<div class=""fixation-cross"">+</div>","null","html-keyboard-response","71","89025","0.0-27.0-0.0","1xgybl8gap","November 20, 2025 8:15 PM","[""https://raw.githubusercontent.com/annapusok731/lookit-stimuli-template/master/test_stimuli/bridget_alexis1.jpg"",""https://raw.githubusercontent.com/annapusok731/lookit-stimuli-template/master/test_stimuli/bridget_bridget1.jpg""]","","","","","","","","","","","","","","","","","","","","","","","","","","","","","","","","","","","","","","","","","","","","","","","","","","","","","","","","","","","","","","","","","","","","","","","","","","","","","","","","","","","","","",""
"null","
            <div style=""text-align: center;"">
                <p style=""color: #666; font-size: 20px; margin-top: 10px; "">Trial 20 of 96</p>
                <div class=""face-images"">
                    <img src=""https://raw.githubusercontent.com/annapusok731/composite_face_effect_studies/main/CFE_Adult/misaligned/billy_billy.jpg"" alt=""Face 1"">
                    <img src=""https://raw.githubusercontent.com/annapusok731/composite_face_effect_studies/main/CFE_Adult/misaligned/billy_carpenter.jpg"" alt=""Face 2"">
                </div>
                <h2 class=""trial-question"">Are the top parts of the faces the same or different?</h2>
            </div>
        ","null","html-button-response","72","90032","0.0-27.0-1.0","1xgybl8gap","November 20, 2025 8:15 PM","[""https://raw.githubusercontent.com/annapusok731/lookit-stimuli-template/master/test_stimuli/bridget_alexis1.jpg"",""https://raw.githubusercontent.com/annapusok731/lookit-stimuli-template/master/test_stimuli/bridget_bridget1.jpg""]","","","","","","main_viewing","20","","","","","https://raw.githubusercontent.com/annapusok731/composite_face_effect_studies/main/CFE_Adult/misaligned/billy_billy.jpg","https://raw.githubusercontent.com/annapusok731/composite_face_effect_studies/main/CFE_Adult/misaligned/billy_carpenter.jpg","","","","","","","","","","","","","","","","","","","","","","","","","","","","","","","","","","","","","","","","","","","","","","","","","","","","","","","","","","","","","","","","","","","","","","","","",""
"833","
                        <div style=""text-align: center;"">
                            <p style=""color: #666; font-size: 20px; margin-top: 10px;"">Trial 20 of 96</p>
                            <h2 class=""trial-question"">Are the top parts of the faces the same or different?</h2>
                        </div>
                    ","0","html-button-response","73","90865","0.0-27.0-2.0","1xgybl8gap","November 20, 2025 8:15 PM","[""https://raw.githubusercontent.com/annapusok731/lookit-stimuli-template/master/test_stimuli/bridget_alexis1.jpg"",""https://raw.githubusercontent.com/annapusok731/lookit-stimuli-template/master/test_stimuli/bridget_bridget1.jpg""]","","","","","","main","20","same","same","true","833","https://raw.githubusercontent.com/annapusok731/composite_face_effect_studies/main/CFE_Adult/misaligned/billy_billy.jpg","https://raw.githubusercontent.com/annapusok731/composite_face_effect_studies/main/CFE_Adult/misaligned/billy_carpenter.jpg","same_misaligned","","","","","","","","","","","","","","","","","","","","","","","","","","","","","","","","","","","","","","","","","","","","","","","","","","","","","","","","","","","","","","","","","","","","","","","",""
"null","<div class=""fixation-cross"">+</div>","null","html-keyboard-response","74","92071","0.0-28.0-0.0","1xgybl8gap","November 20, 2025 8:15 PM","[""https://raw.githubusercontent.com/annapusok731/lookit-stimuli-template/master/test_stimuli/bridget_alexis1.jpg"",""https://raw.githubusercontent.com/annapusok731/lookit-stimuli-template/master/test_stimuli/bridget_bridget1.jpg""]","","","","","","","","","","","","","","","","","","","","","","","","","","","","","","","","","","","","","","","","","","","","","","","","","","","","","","","","","","","","","","","","","","","","","","","","","","","","","","","","","","","","","",""
"null","
            <div style=""text-align: center;"">
                <p style=""color: #666; font-size: 20px; margin-top: 10px; "">Trial 21 of 96</p>
                <div class=""face-images"">
                    <img src=""https://raw.githubusercontent.com/annapusok731/composite_face_effect_studies/main/CFE_Adult/misaligned/everly_everly.jpg"" alt=""Face 1"">
                    <img src=""https://raw.githubusercontent.com/annapusok731/composite_face_effect_studies/main/CFE_Adult/misaligned/everly_skylar.jpg"" alt=""Face 2"">
                </div>
                <h2 class=""trial-question"">Are the top parts of the faces the same or different?</h2>
            </div>
        ","null","html-button-response","75","93083","0.0-28.0-1.0","1xgybl8gap","November 20, 2025 8:15 PM","[""https://raw.githubusercontent.com/annapusok731/lookit-stimuli-template/master/test_stimuli/bridget_alexis1.jpg"",""https://raw.githubusercontent.com/annapusok731/lookit-stimuli-template/master/test_stimuli/bridget_bridget1.jpg""]","","","","","","main_viewing","21","","","","","https://raw.githubusercontent.com/annapusok731/composite_face_effect_studies/main/CFE_Adult/misaligned/everly_everly.jpg","https://raw.githubusercontent.com/annapusok731/composite_face_effect_studies/main/CFE_Adult/misaligned/everly_skylar.jpg","","","","","","","","","","","","","","","","","","","","","","","","","","","","","","","","","","","","","","","","","","","","","","","","","","","","","","","","","","","","","","","","","","","","","","","","",""
"613","
                        <div style=""text-align: center;"">
                            <p style=""color: #666; font-size: 20px; margin-top: 10px;"">Trial 21 of 96</p>
                            <h2 class=""trial-question"">Are the top parts of the faces the same or different?</h2>
                        </div>
                    ","0","html-button-response","76","93697","0.0-28.0-2.0","1xgybl8gap","November 20, 2025 8:15 PM","[""https://raw.githubusercontent.com/annapusok731/lookit-stimuli-template/master/test_stimuli/bridget_alexis1.jpg"",""https://raw.githubusercontent.com/annapusok731/lookit-stimuli-template/master/test_stimuli/bridget_bridget1.jpg""]","","","","","","main","21","same","same","true","613","https://raw.githubusercontent.com/annapusok731/composite_face_effect_studies/main/CFE_Adult/misaligned/everly_everly.jpg","https://raw.githubusercontent.com/annapusok731/composite_face_effect_studies/main/CFE_Adult/misaligned/everly_skylar.jpg","same_misaligned","","","","","","","","","","","","","","","","","","","","","","","","","","","","","","","","","","","","","","","","","","","","","","","","","","","","","","","","","","","","","","","","","","","","","","","",""
"null","<div class=""fixation-cross"">+</div>","null","html-keyboard-response","77","94902","0.0-29.0-0.0","1xgybl8gap","November 20, 2025 8:15 PM","[""https://raw.githubusercontent.com/annapusok731/lookit-stimuli-template/master/test_stimuli/bridget_alexis1.jpg"",""https://raw.githubusercontent.com/annapusok731/lookit-stimuli-template/master/test_stimuli/bridget_bridget1.jpg""]","","","","","","","","","","","","","","","","","","","","","","","","","","","","","","","","","","","","","","","","","","","","","","","","","","","","","","","","","","","","","","","","","","","","","","","","","","","","","","","","","","","","","",""
"null","
            <div style=""text-align: center;"">
                <p style=""color: #666; font-size: 20px; margin-top: 10px; "">Trial 22 of 96</p>
                <div class=""face-images"">
                    <img src=""https://raw.githubusercontent.com/annapusok731/composite_face_effect_studies/main/CFE_Adult/aligned/laura_dolly.jpg"" alt=""Face 1"">
                    <img src=""https://raw.githubusercontent.com/annapusok731/composite_face_effect_studies/main/CFE_Adult/aligned/laura_laura.jpg"" alt=""Face 2"">
                </div>
                <h2 class=""trial-question"">Are the top parts of the faces the same or different?</h2>
            </div>
        ","null","html-button-response","78","95915","0.0-29.0-1.0","1xgybl8gap","November 20, 2025 8:15 PM","[""https://raw.githubusercontent.com/annapusok731/lookit-stimuli-template/master/test_stimuli/bridget_alexis1.jpg"",""https://raw.githubusercontent.com/annapusok731/lookit-stimuli-template/master/test_stimuli/bridget_bridget1.jpg""]","","","","","","main_viewing","22","","","","","https://raw.githubusercontent.com/annapusok731/composite_face_effect_studies/main/CFE_Adult/aligned/laura_dolly.jpg","https://raw.githubusercontent.com/annapusok731/composite_face_effect_studies/main/CFE_Adult/aligned/laura_laura.jpg","","","","","","","","","","","","","","","","","","","","","","","","","","","","","","","","","","","","","","","","","","","","","","","","","","","","","","","","","","","","","","","","","","","","","","","","",""
"781","
                        <div style=""text-align: center;"">
                            <p style=""color: #666; font-size: 20px; margin-top: 10px;"">Trial 22 of 96</p>
                            <h2 class=""trial-question"">Are the top parts of the faces the same or different?</h2>
                        </div>
                    ","0","html-button-response","79","96697","0.0-29.0-2.0","1xgybl8gap","November 20, 2025 8:15 PM","[""https://raw.githubusercontent.com/annapusok731/lookit-stimuli-template/master/test_stimuli/bridget_alexis1.jpg"",""https://raw.githubusercontent.com/annapusok731/lookit-stimuli-template/master/test_stimuli/bridget_bridget1.jpg""]","","","","","","main","22","same","same","true","781","https://raw.githubusercontent.com/annapusok731/composite_face_effect_studies/main/CFE_Adult/aligned/laura_dolly.jpg","https://raw.githubusercontent.com/annapusok731/composite_face_effect_studies/main/CFE_Adult/aligned/laura_laura.jpg","same_aligned","","","","","","","","","","","","","","","","","","","","","","","","","","","","","","","","","","","","","","","","","","","","","","","","","","","","","","","","","","","","","","","","","","","","","","","",""
"null","<div class=""fixation-cross"">+</div>","null","html-keyboard-response","80","97908","0.0-30.0-0.0","1xgybl8gap","November 20, 2025 8:15 PM","[""https://raw.githubusercontent.com/annapusok731/lookit-stimuli-template/master/test_stimuli/bridget_alexis1.jpg"",""https://raw.githubusercontent.com/annapusok731/lookit-stimuli-template/master/test_stimuli/bridget_bridget1.jpg""]","","","","","","","","","","","","","","","","","","","","","","","","","","","","","","","","","","","","","","","","","","","","","","","","","","","","","","","","","","","","","","","","","","","","","","","","","","","","","","","","","","","","","",""
"null","
            <div style=""text-align: center;"">
                <p style=""color: #666; font-size: 20px; margin-top: 10px; "">Trial 23 of 96</p>
                <div class=""face-images"">
                    <img src=""https://raw.githubusercontent.com/annapusok731/composite_face_effect_studies/main/CFE_Adult/aligned/brianne_brianne.jpg"" alt=""Face 1"">
                    <img src=""https://raw.githubusercontent.com/annapusok731/composite_face_effect_studies/main/CFE_Adult/aligned/brianne_meredith.jpg"" alt=""Face 2"">
                </div>
                <h2 class=""trial-question"">Are the top parts of the faces the same or different?</h2>
            </div>
        ","null","html-button-response","81","98913","0.0-30.0-1.0","1xgybl8gap","November 20, 2025 8:15 PM","[""https://raw.githubusercontent.com/annapusok731/lookit-stimuli-template/master/test_stimuli/bridget_alexis1.jpg"",""https://raw.githubusercontent.com/annapusok731/lookit-stimuli-template/master/test_stimuli/bridget_bridget1.jpg""]","","","","","","main_viewing","23","","","","","https://raw.githubusercontent.com/annapusok731/composite_face_effect_studies/main/CFE_Adult/aligned/brianne_brianne.jpg","https://raw.githubusercontent.com/annapusok731/composite_face_effect_studies/main/CFE_Adult/aligned/brianne_meredith.jpg","","","","","","","","","","","","","","","","","","","","","","","","","","","","","","","","","","","","","","","","","","","","","","","","","","","","","","","","","","","","","","","","","","","","","","","","",""
"336","
                        <div style=""text-align: center;"">
                            <p style=""color: #666; font-size: 20px; margin-top: 10px;"">Trial 23 of 96</p>
                            <h2 class=""trial-question"">Are the top parts of the faces the same or different?</h2>
                        </div>
                    ","0","html-button-response","82","99249","0.0-30.0-2.0","1xgybl8gap","November 20, 2025 8:15 PM","[""https://raw.githubusercontent.com/annapusok731/lookit-stimuli-template/master/test_stimuli/bridget_alexis1.jpg"",""https://raw.githubusercontent.com/annapusok731/lookit-stimuli-template/master/test_stimuli/bridget_bridget1.jpg""]","","","","","","main","23","same","same","true","336","https://raw.githubusercontent.com/annapusok731/composite_face_effect_studies/main/CFE_Adult/aligned/brianne_brianne.jpg","https://raw.githubusercontent.com/annapusok731/composite_face_effect_studies/main/CFE_Adult/aligned/brianne_meredith.jpg","same_aligned","","","","","","","","","","","","","","","","","","","","","","","","","","","","","","","","","","","","","","","","","","","","","","","","","","","","","","","","","","","","","","","","","","","","","","","",""
"null","<div class=""fixation-cross"">+</div>","null","html-keyboard-response","83","100461","0.0-31.0-0.0","1xgybl8gap","November 20, 2025 8:15 PM","[""https://raw.githubusercontent.com/annapusok731/lookit-stimuli-template/master/test_stimuli/bridget_alexis1.jpg"",""https://raw.githubusercontent.com/annapusok731/lookit-stimuli-template/master/test_stimuli/bridget_bridget1.jpg""]","","","","","","","","","","","","","","","","","","","","","","","","","","","","","","","","","","","","","","","","","","","","","","","","","","","","","","","","","","","","","","","","","","","","","","","","","","","","","","","","","","","","","",""
"null","
            <div style=""text-align: center;"">
                <p style=""color: #666; font-size: 20px; margin-top: 10px; "">Trial 24 of 96</p>
                <div class=""face-images"">
                    <img src=""https://raw.githubusercontent.com/annapusok731/composite_face_effect_studies/main/CFE_Adult/aligned/mimi_kelly.jpg"" alt=""Face 1"">
                    <img src=""https://raw.githubusercontent.com/annapusok731/composite_face_effect_studies/main/CFE_Adult/aligned/mimi_mimi.jpg"" alt=""Face 2"">
                </div>
                <h2 class=""trial-question"">Are the top parts of the faces the same or different?</h2>
            </div>
        ","null","html-button-response","84","101475","0.0-31.0-1.0","1xgybl8gap","November 20, 2025 8:15 PM","[""https://raw.githubusercontent.com/annapusok731/lookit-stimuli-template/master/test_stimuli/bridget_alexis1.jpg"",""https://raw.githubusercontent.com/annapusok731/lookit-stimuli-template/master/test_stimuli/bridget_bridget1.jpg""]","","","","","","main_viewing","24","","","","","https://raw.githubusercontent.com/annapusok731/composite_face_effect_studies/main/CFE_Adult/aligned/mimi_kelly.jpg","https://raw.githubusercontent.com/annapusok731/composite_face_effect_studies/main/CFE_Adult/aligned/mimi_mimi.jpg","","","","","","","","","","","","","","","","","","","","","","","","","","","","","","","","","","","","","","","","","","","","","","","","","","","","","","","","","","","","","","","","","","","","","","","","",""
"374","
                        <div style=""text-align: center;"">
                            <p style=""color: #666; font-size: 20px; margin-top: 10px;"">Trial 24 of 96</p>
                            <h2 class=""trial-question"">Are the top parts of the faces the same or different?</h2>
                        </div>
                    ","0","html-button-response","85","101849","0.0-31.0-2.0","1xgybl8gap","November 20, 2025 8:15 PM","[""https://raw.githubusercontent.com/annapusok731/lookit-stimuli-template/master/test_stimuli/bridget_alexis1.jpg"",""https://raw.githubusercontent.com/annapusok731/lookit-stimuli-template/master/test_stimuli/bridget_bridget1.jpg""]","","","","","","main","24","same","same","true","374","https://raw.githubusercontent.com/annapusok731/composite_face_effect_studies/main/CFE_Adult/aligned/mimi_kelly.jpg","https://raw.githubusercontent.com/annapusok731/composite_face_effect_studies/main/CFE_Adult/aligned/mimi_mimi.jpg","same_aligned","","","","","","","","","","","","","","","","","","","","","","","","","","","","","","","","","","","","","","","","","","","","","","","","","","","","","","","","","","","","","","","","","","","","","","","",""
"null","<div class=""fixation-cross"">+</div>","null","html-keyboard-response","86","103063","0.0-32.0-0.0","1xgybl8gap","November 20, 2025 8:15 PM","[""https://raw.githubusercontent.com/annapusok731/lookit-stimuli-template/master/test_stimuli/bridget_alexis1.jpg"",""https://raw.githubusercontent.com/annapusok731/lookit-stimuli-template/master/test_stimuli/bridget_bridget1.jpg""]","","","","","","","","","","","","","","","","","","","","","","","","","","","","","","","","","","","","","","","","","","","","","","","","","","","","","","","","","","","","","","","","","","","","","","","","","","","","","","","","","","","","","",""
"null","
            <div style=""text-align: center;"">
                <p style=""color: #666; font-size: 20px; margin-top: 10px; "">Trial 25 of 96</p>
                <div class=""face-images"">
                    <img src=""https://raw.githubusercontent.com/annapusok731/composite_face_effect_studies/main/CFE_Adult/aligned/velma_velma.jpg"" alt=""Face 1"">
                    <img src=""https://raw.githubusercontent.com/annapusok731/composite_face_effect_studies/main/CFE_Adult/aligned/velma_ellen.jpg"" alt=""Face 2"">
                </div>
                <h2 class=""trial-question"">Are the top parts of the faces the same or different?</h2>
            </div>
        ","null","html-button-response","87","104077","0.0-32.0-1.0","1xgybl8gap","November 20, 2025 8:15 PM","[""https://raw.githubusercontent.com/annapusok731/lookit-stimuli-template/master/test_stimuli/bridget_alexis1.jpg"",""https://raw.githubusercontent.com/annapusok731/lookit-stimuli-template/master/test_stimuli/bridget_bridget1.jpg""]","","","","","","main_viewing","25","","","","","https://raw.githubusercontent.com/annapusok731/composite_face_effect_studies/main/CFE_Adult/aligned/velma_velma.jpg","https://raw.githubusercontent.com/annapusok731/composite_face_effect_studies/main/CFE_Adult/aligned/velma_ellen.jpg","","","","","","","","","","","","","","","","","","","","","","","","","","","","","","","","","","","","","","","","","","","","","","","","","","","","","","","","","","","","","","","","","","","","","","","","",""
"307","
                        <div style=""text-align: center;"">
                            <p style=""color: #666; font-size: 20px; margin-top: 10px;"">Trial 25 of 96</p>
                            <h2 class=""trial-question"">Are the top parts of the faces the same or different?</h2>
                        </div>
