"rt","stimulus","response","trial_type","trial_index","time_elapsed","internal_node_id","subject_id","timeslot","current_practice_images","success","timeout","failed_images","failed_audio","failed_video","task","trial_number","correct_answer","response_label","correct","response_time_ms","image_left","image_right","condition","question_order","Q1","Q2","Q3","Q4","Q5","Q6","Q7","Q8","Q9","Q10","Q11","Q12","Q13","Q14","Q15","Q16","Q17","Q18","Q19","Q20","Q21","Q22","Q23","Q24","Q25","Q26","Q27","Q28","Q29","Q30","Q31","Q32","Q33","Q34","Q35","Q36","Q37","Q38","Q39","Q40","Q41","Q42","Q43","Q44","Q45","Q46","Q47","Q48","Q49","Q50","Q51","Q52","Q53","Q54","Q55","Q56","Q57","Q58","Q59","Q60","Q61","Q62","Q63","Q64","Q65","srs_total_score","age","race_ethnicity","sex","education","living_status"
"9237","
            <h1>Research Study Consent Form</h1>
            <div class=""consent-content"">
                <p>You are being invited to participate in a research study titled ""Reproducibility of Psychological Science and Instruction."" This study is being done by Dr. Bria Long from UC San Diego and associated graduate students in Experimental Methods course. You were selected to participate in this study because you are an adult in the U.S. and have been a represented population in previous psychology studies.</p>
                
                <p>The purpose of this study is to better understand how well previously published studies in the psychological field replicate online and with different populations. Your participation in this research should last approximately 5-30 minutes. If you agree to take part in this study, you may be asked to view a set of stimuli, including pictures, sounds, written text, or videos and then giving some responses via key-presses, verbally, or with paper-and-pencil. We may also observe your choices or preferences among an array of stimuli. These stimuli will be taken directly from or closely adapted from studies that already exist in the published psychological literature. Stimuli will include, e.g., pictures of objects and human faces, audio and video clips, short text passages, etc. None of the stimuli will be disturbing, threatening, or offensive. The online and in-person experiments described in this protocol will take no more than 30 minutes. An example game you might play would be to click on an image on the screen that matches a word you hear being said out loud. Your total expected time commitment for this study is between 5-30 minutes, and is specified in the study description.</p>
                
                <p>Your participation in this study is completely voluntary and you can withdraw at any time. Choosing not to participate or withdrawing will result in no penalty or loss of benefits to which you are entitled. You are free to skip any question that you choose.</p>
                
                <p>We will not be asking for any personally identifying information, and we will handle responses as confidentially as possible. Your SONA or Prolific IDs will never be tied to your responses on this survey. However, we cannot guarantee the confidentiality of information transmitted over the Internet. To minimize this risk, data containing anything that might be personally identifiable (e.g. Prolific IDs or IP addresses) will be encrypted on transfer and storage and will only be accessible to qualified lab personnel. We will be keeping data collected as part of this experiment indefinitely. This anonymized data (containing neither Prolific IDs nor IP addresses) may be shared with the scientific community or with other participants to be used as stimuli in future studies.</p>
                
                <p>If you have questions about this project or if you have a research-related problem, you may contact the researcher(s), Dr. Bria Long, <a href=""mailto:brlong@ucsd.edu"">brlong@ucsd.edu</a>. If you have any questions concerning your rights as a research subject, you may contact the UC San Diego Office of IRB Administration at <a href=""mailto:irb@ucsd.edu"">irb@ucsd.edu</a> or 858-246-4777.</p>
                
                <p><strong>By participating in this research you are indicating that you are at least 18 years old, have read this consent form, and agree to participate in this research study. Please keep this consent form for your records.</strong></p>
            </div>
        ","0","html-button-response","0","9239","0.0-0.0","apogl3rm6b","Thu 11/20 7:00pm","[""https://raw.githubusercontent.com/annapusok731/lookit-stimuli-template/master/test_stimuli/bridget_bridget1.jpg"",""https://raw.githubusercontent.com/annapusok731/lookit-stimuli-template/master/test_stimuli/bridget_alexis1.jpg""]","","","","","","","","","","","","","","","","","","","","","","","","","","","","","","","","","","","","","","","","","","","","","","","","","","","","","","","","","","","","","","","","","","","","","","","","","","","","","","","","","","","","","",""
"58100","
            <h1>Timeslot Information</h1>
            <div class=""demographics-form"">
                <div class=""form-group"">
                    <label for=""timeslot"">What is the date/time you signed up for? We will need this information to verify your session and issue your credit within 3 days of participation.</label>
                    <input type=""text"" id=""timeslot"" name=""timeslot"" placeholder=""e.g., Monday 11/18 at 2:00 PM"" required>
                </div>
            </div>
        ","0","html-button-response","1","67340","0.0-1.0","apogl3rm6b","Thu 11/20 7:00pm","[""https://raw.githubusercontent.com/annapusok731/lookit-stimuli-template/master/test_stimuli/bridget_bridget1.jpg"",""https://raw.githubusercontent.com/annapusok731/lookit-stimuli-template/master/test_stimuli/bridget_alexis1.jpg""]","","","","","","","","","","","","","","","","","","","","","","","","","","","","","","","","","","","","","","","","","","","","","","","","","","","","","","","","","","","","","","","","","","","","","","","","","","","","","","","","","","","","","",""
"14347","
            <h1>Instructions</h1>
            <p>In this task, you will see two pictures of faces side-by-side. They will be visible for a short amount of time.</p>
            <p>You will have to decide whether the top parts of the faces are the same or different.</p>
            <p>To answer, click on either the ""SAME"" or ""DIFFERENT"" buttons below the images.</p>
            <p>Try to answer as quickly as you can.</p>
            <p>There will be two practice trials. Once you click on ""Next"" after the second practice, the experiment will automatically start.</p>
            <p>After the experiment, we ask you to fill out two surveys.</p>
        ","0","html-button-response","2","81689","0.0-2.0","apogl3rm6b","Thu 11/20 7:00pm","[""https://raw.githubusercontent.com/annapusok731/lookit-stimuli-template/master/test_stimuli/bridget_bridget1.jpg"",""https://raw.githubusercontent.com/annapusok731/lookit-stimuli-template/master/test_stimuli/bridget_alexis1.jpg""]","","","","","","","","","","","","","","","","","","","","","","","","","","","","","","","","","","","","","","","","","","","","","","","","","","","","","","","","","","","","","","","","","","","","","","","","","","","","","","","","","","","","","",""
"","","","preload","3","83500","0.0-3.0","apogl3rm6b","Thu 11/20 7:00pm","[""https://raw.githubusercontent.com/annapusok731/lookit-stimuli-template/master/test_stimuli/bridget_bridget1.jpg"",""https://raw.githubusercontent.com/annapusok731/lookit-stimuli-template/master/test_stimuli/bridget_alexis1.jpg""]","true","false","[]","[]","[]","","","","","","","","","","","","","","","","","","","","","","","","","","","","","","","","","","","","","","","","","","","","","","","","","","","","","","","","","","","","","","","","","","","","","","","","","","","","","","","","",""
"1937","","","fullscreen","4","86441","0.0-4.0","apogl3rm6b","Thu 11/20 7:00pm","[""https://raw.githubusercontent.com/annapusok731/lookit-stimuli-template/master/test_stimuli/bridget_bridget1.jpg"",""https://raw.githubusercontent.com/annapusok731/lookit-stimuli-template/master/test_stimuli/bridget_alexis1.jpg""]","true","","","","","","","","","","","","","","","","","","","","","","","","","","","","","","","","","","","","","","","","","","","","","","","","","","","","","","","","","","","","","","","","","","","","","","","","","","","","","","","","","","","","",""
"null","<div class=""fixation-cross"">+</div>","null","html-keyboard-response","5","87644","0.0-5.0-0.0","apogl3rm6b","Thu 11/20 7:00pm","[""https://raw.githubusercontent.com/annapusok731/lookit-stimuli-template/master/test_stimuli/bridget_bridget1.jpg"",""https://raw.githubusercontent.com/annapusok731/lookit-stimuli-template/master/test_stimuli/bridget_alexis1.jpg""]","","","","","","","","","","","","","","","","","","","","","","","","","","","","","","","","","","","","","","","","","","","","","","","","","","","","","","","","","","","","","","","","","","","","","","","","","","","","","","","","","","","","","",""
"null","
            <div style=""text-align: center;"">
                <p style=""color: #666; font-size: 20px; margin-top: 10px; "">Practice Trial 1 of 2</p>
                <div class=""face-images"">
                    <img src=""https://raw.githubusercontent.com/annapusok731/lookit-stimuli-template/master/test_stimuli/arnold_william1.jpg"" alt=""Face 1"">
                    <img src=""https://raw.githubusercontent.com/annapusok731/lookit-stimuli-template/master/test_stimuli/william_arnold1.jpg"" alt=""Face 2"">
                </div>
                <h2 class=""trial-question"">Are the top parts of the faces the same or different?</h2>
            </div>
        ","null","html-button-response","6","88647","0.0-5.0-1.0","apogl3rm6b","Thu 11/20 7:00pm","[""https://raw.githubusercontent.com/annapusok731/lookit-stimuli-template/master/test_stimuli/bridget_bridget1.jpg"",""https://raw.githubusercontent.com/annapusok731/lookit-stimuli-template/master/test_stimuli/bridget_alexis1.jpg""]","","","","","","practice_viewing","1","","","","","","","","","","","","","","","","","","","","","","","","","","","","","","","","","","","","","","","","","","","","","","","","","","","","","","","","","","","","","","","","","","","","","","","","","","","","","","",""
"1273","<h2 class=""trial-question"">Are the top parts of the faces the same or different?</h2>","0","html-button-response","7","89922","0.0-5.0-2.0","apogl3rm6b","Thu 11/20 7:00pm","[""https://raw.githubusercontent.com/annapusok731/lookit-stimuli-template/master/test_stimuli/bridget_bridget1.jpg"",""https://raw.githubusercontent.com/annapusok731/lookit-stimuli-template/master/test_stimuli/bridget_alexis1.jpg""]","","","","","","practice","1","different","same","false","1273","","","","","","","","","","","","","","","","","","","","","","","","","","","","","","","","","","","","","","","","","","","","","","","","","","","","","","","","","","","","","","","","","","","","","","","","","","",""
"2299","
                                <h1 class=""feedback-incorrect"">Try again!</h1>
                                <p style=""font-size: 18px; margin-top: 20px;"">Let's practice this one again.</p>
                            ","0","html-button-response","8","92222","0.0-5.0-3.0","apogl3rm6b","Thu 11/20 7:00pm","[""https://raw.githubusercontent.com/annapusok731/lookit-stimuli-template/master/test_stimuli/bridget_bridget1.jpg"",""https://raw.githubusercontent.com/annapusok731/lookit-stimuli-template/master/test_stimuli/bridget_alexis1.jpg""]","","","","","","","","","","","","","","","","","","","","","","","","","","","","","","","","","","","","","","","","","","","","","","","","","","","","","","","","","","","","","","","","","","","","","","","","","","","","","","","","","","","","","",""
"null","<div class=""fixation-cross"">+</div>","null","html-keyboard-response","9","93425","0.0-5.1-0.1","apogl3rm6b","Thu 11/20 7:00pm","[""https://raw.githubusercontent.com/annapusok731/lookit-stimuli-template/master/test_stimuli/bridget_bridget1.jpg"",""https://raw.githubusercontent.com/annapusok731/lookit-stimuli-template/master/test_stimuli/bridget_alexis1.jpg""]","","","","","","","","","","","","","","","","","","","","","","","","","","","","","","","","","","","","","","","","","","","","","","","","","","","","","","","","","","","","","","","","","","","","","","","","","","","","","","","","","","","","","",""
"null","
            <div style=""text-align: center;"">
                <p style=""color: #666; font-size: 20px; margin-top: 10px; "">Practice Trial 1 of 2</p>
                <div class=""face-images"">
                    <img src=""https://raw.githubusercontent.com/annapusok731/lookit-stimuli-template/master/test_stimuli/william_arnold1.jpg"" alt=""Face 1"">
                    <img src=""https://raw.githubusercontent.com/annapusok731/lookit-stimuli-template/master/test_stimuli/arnold_william1.jpg"" alt=""Face 2"">
                </div>
                <h2 class=""trial-question"">Are the top parts of the faces the same or different?</h2>
            </div>
        ","null","html-button-response","10","94427","0.0-5.1-1.1","apogl3rm6b","Thu 11/20 7:00pm","[""https://raw.githubusercontent.com/annapusok731/lookit-stimuli-template/master/test_stimuli/bridget_bridget1.jpg"",""https://raw.githubusercontent.com/annapusok731/lookit-stimuli-template/master/test_stimuli/bridget_alexis1.jpg""]","","","","","","practice_viewing","1","","","","","","","","","","","","","","","","","","","","","","","","","","","","","","","","","","","","","","","","","","","","","","","","","","","","","","","","","","","","","","","","","","","","","","","","","","","","","","",""
"776","<h2 class=""trial-question"">Are the top parts of the faces the same or different?</h2>","1","html-button-response","11","95205","0.0-5.1-2.1","apogl3rm6b","Thu 11/20 7:00pm","[""https://raw.githubusercontent.com/annapusok731/lookit-stimuli-template/master/test_stimuli/bridget_bridget1.jpg"",""https://raw.githubusercontent.com/annapusok731/lookit-stimuli-template/master/test_stimuli/bridget_alexis1.jpg""]","","","","","","practice","1","different","different","true","776","","","","","","","","","","","","","","","","","","","","","","","","","","","","","","","","","","","","","","","","","","","","","","","","","","","","","","","","","","","","","","","","","","","","","","","","","","",""
"999","
                                <h1 class=""feedback-correct"">Great job!</h1>
                                <p style=""font-size: 18px; margin-top: 20px;"">The top parts of the faces are different!</p>
                            ","0","html-button-response","12","96205","0.0-5.1-3.1","apogl3rm6b","Thu 11/20 7:00pm","[""https://raw.githubusercontent.com/annapusok731/lookit-stimuli-template/master/test_stimuli/bridget_bridget1.jpg"",""https://raw.githubusercontent.com/annapusok731/lookit-stimuli-template/master/test_stimuli/bridget_alexis1.jpg""]","","","","","","","","","","","","","","","","","","","","","","","","","","","","","","","","","","","","","","","","","","","","","","","","","","","","","","","","","","","","","","","","","","","","","","","","","","","","","","","","","","","","","",""
"null","<div class=""fixation-cross"">+</div>","null","html-keyboard-response","13","97407","0.0-6.0-0.0","apogl3rm6b","Thu 11/20 7:00pm","[""https://raw.githubusercontent.com/annapusok731/lookit-stimuli-template/master/test_stimuli/bridget_bridget1.jpg"",""https://raw.githubusercontent.com/annapusok731/lookit-stimuli-template/master/test_stimuli/bridget_alexis1.jpg""]","","","","","","","","","","","","","","","","","","","","","","","","","","","","","","","","","","","","","","","","","","","","","","","","","","","","","","","","","","","","","","","","","","","","","","","","","","","","","","","","","","","","","",""
"null","
            <div style=""text-align: center;"">
                <p style=""color: #666; font-size: 20px; margin-top: 10px; "">Practice Trial 2 of 2</p>
                <div class=""face-images"">
                    <img src=""https://raw.githubusercontent.com/annapusok731/lookit-stimuli-template/master/test_stimuli/bridget_bridget1.jpg"" alt=""Face 1"">
                    <img src=""https://raw.githubusercontent.com/annapusok731/lookit-stimuli-template/master/test_stimuli/bridget_alexis1.jpg"" alt=""Face 2"">
                </div>
                <h2 class=""trial-question"">Are the top parts of the faces the same or different?</h2>
            </div>
        ","null","html-button-response","14","98409","0.0-6.0-1.0","apogl3rm6b","Thu 11/20 7:00pm","[""https://raw.githubusercontent.com/annapusok731/lookit-stimuli-template/master/test_stimuli/bridget_bridget1.jpg"",""https://raw.githubusercontent.com/annapusok731/lookit-stimuli-template/master/test_stimuli/bridget_alexis1.jpg""]","","","","","","practice_viewing","2","","","","","","","","","","","","","","","","","","","","","","","","","","","","","","","","","","","","","","","","","","","","","","","","","","","","","","","","","","","","","","","","","","","","","","","","","","","","","","",""
"929","<h2 class=""trial-question"">Are the top parts of the faces the same or different?</h2>","0","html-button-response","15","99339","0.0-6.0-2.0","apogl3rm6b","Thu 11/20 7:00pm","[""https://raw.githubusercontent.com/annapusok731/lookit-stimuli-template/master/test_stimuli/bridget_bridget1.jpg"",""https://raw.githubusercontent.com/annapusok731/lookit-stimuli-template/master/test_stimuli/bridget_alexis1.jpg""]","","","","","","practice","2","same","same","true","929","","","","","","","","","","","","","","","","","","","","","","","","","","","","","","","","","","","","","","","","","","","","","","","","","","","","","","","","","","","","","","","","","","","","","","","","","","",""
"1148","
                                <h1 class=""feedback-correct"">Great job!</h1>
                                <p style=""font-size: 18px; margin-top: 20px;"">The top parts of the faces are same!</p>
                            ","0","html-button-response","16","100488","0.0-6.0-3.0","apogl3rm6b","Thu 11/20 7:00pm","[""https://raw.githubusercontent.com/annapusok731/lookit-stimuli-template/master/test_stimuli/bridget_bridget1.jpg"",""https://raw.githubusercontent.com/annapusok731/lookit-stimuli-template/master/test_stimuli/bridget_alexis1.jpg""]","","","","","","","","","","","","","","","","","","","","","","","","","","","","","","","","","","","","","","","","","","","","","","","","","","","","","","","","","","","","","","","","","","","","","","","","","","","","","","","","","","","","","",""
"1899","
            <h1 class=""feedback-correct"">Practice Complete!</h1>
            <p style=""font-size: 18px; margin-top: 20px;"">Great job! Now starting the experiment.</p>
        ","0","html-button-response","17","102388","0.0-7.0","apogl3rm6b","Thu 11/20 7:00pm","[""https://raw.githubusercontent.com/annapusok731/lookit-stimuli-template/master/test_stimuli/bridget_bridget1.jpg"",""https://raw.githubusercontent.com/annapusok731/lookit-stimuli-template/master/test_stimuli/bridget_alexis1.jpg""]","","","","","","","","","","","","","","","","","","","","","","","","","","","","","","","","","","","","","","","","","","","","","","","","","","","","","","","","","","","","","","","","","","","","","","","","","","","","","","","","","","","","","",""
"null","<div class=""fixation-cross"">+</div>","null","html-keyboard-response","18","103590","0.0-8.0-0.0","apogl3rm6b","Thu 11/20 7:00pm","[""https://raw.githubusercontent.com/annapusok731/lookit-stimuli-template/master/test_stimuli/bridget_bridget1.jpg"",""https://raw.githubusercontent.com/annapusok731/lookit-stimuli-template/master/test_stimuli/bridget_alexis1.jpg""]","","","","","","","","","","","","","","","","","","","","","","","","","","","","","","","","","","","","","","","","","","","","","","","","","","","","","","","","","","","","","","","","","","","","","","","","","","","","","","","","","","","","","",""
"null","
            <div style=""text-align: center;"">
                <p style=""color: #666; font-size: 20px; margin-top: 10px; "">Trial 1 of 96</p>
                <div class=""face-images"">
                    <img src=""https://raw.githubusercontent.com/annapusok731/composite_face_effect_studies/main/CFE_Adult/aligned/cody_zack.jpg"" alt=""Face 1"">
                    <img src=""https://raw.githubusercontent.com/annapusok731/composite_face_effect_studies/main/CFE_Adult/aligned/cody_cody.jpg"" alt=""Face 2"">
                </div>
                <h2 class=""trial-question"">Are the top parts of the faces the same or different?</h2>
            </div>
        ","null","html-button-response","19","104593","0.0-8.0-1.0","apogl3rm6b","Thu 11/20 7:00pm","[""https://raw.githubusercontent.com/annapusok731/lookit-stimuli-template/master/test_stimuli/bridget_bridget1.jpg"",""https://raw.githubusercontent.com/annapusok731/lookit-stimuli-template/master/test_stimuli/bridget_alexis1.jpg""]","","","","","","main_viewing","1","","","","","https://raw.githubusercontent.com/annapusok731/composite_face_effect_studies/main/CFE_Adult/aligned/cody_zack.jpg","https://raw.githubusercontent.com/annapusok731/composite_face_effect_studies/main/CFE_Adult/aligned/cody_cody.jpg","","","","","","","","","","","","","","","","","","","","","","","","","","","","","","","","","","","","","","","","","","","","","","","","","","","","","","","","","","","","","","","","","","","","","","","","",""
"978","
                        <div style=""text-align: center;"">
                            <p style=""color: #666; font-size: 20px; margin-top: 10px;"">Trial 1 of 96</p>
                            <h2 class=""trial-question"">Are the top parts of the faces the same or different?</h2>
                        </div>
                    ","0","html-button-response","20","105571","0.0-8.0-2.0","apogl3rm6b","Thu 11/20 7:00pm","[""https://raw.githubusercontent.com/annapusok731/lookit-stimuli-template/master/test_stimuli/bridget_bridget1.jpg"",""https://raw.githubusercontent.com/annapusok731/lookit-stimuli-template/master/test_stimuli/bridget_alexis1.jpg""]","","","","","","main","1","same","same","true","978","https://raw.githubusercontent.com/annapusok731/composite_face_effect_studies/main/CFE_Adult/aligned/cody_zack.jpg","https://raw.githubusercontent.com/annapusok731/composite_face_effect_studies/main/CFE_Adult/aligned/cody_cody.jpg","same_aligned","","","","","","","","","","","","","","","","","","","","","","","","","","","","","","","","","","","","","","","","","","","","","","","","","","","","","","","","","","","","","","","","","","","","","","","",""
"null","<div class=""fixation-cross"">+</div>","null","html-keyboard-response","21","106773","0.0-9.0-0.0","apogl3rm6b","Thu 11/20 7:00pm","[""https://raw.githubusercontent.com/annapusok731/lookit-stimuli-template/master/test_stimuli/bridget_bridget1.jpg"",""https://raw.githubusercontent.com/annapusok731/lookit-stimuli-template/master/test_stimuli/bridget_alexis1.jpg""]","","","","","","","","","","","","","","","","","","","","","","","","","","","","","","","","","","","","","","","","","","","","","","","","","","","","","","","","","","","","","","","","","","","","","","","","","","","","","","","","","","","","","",""
"null","
            <div style=""text-align: center;"">
                <p style=""color: #666; font-size: 20px; margin-top: 10px; "">Trial 2 of 96</p>
                <div class=""face-images"">
                    <img src=""https://raw.githubusercontent.com/annapusok731/composite_face_effect_studies/main/CFE_Adult/misaligned/rose_liv.jpg"" alt=""Face 1"">
                    <img src=""https://raw.githubusercontent.com/annapusok731/composite_face_effect_studies/main/CFE_Adult/misaligned/liv_rose.jpg"" alt=""Face 2"">
                </div>
                <h2 class=""trial-question"">Are the top parts of the faces the same or different?</h2>
            </div>
        ","null","html-button-response","22","107776","0.0-9.0-1.0","apogl3rm6b","Thu 11/20 7:00pm","[""https://raw.githubusercontent.com/annapusok731/lookit-stimuli-template/master/test_stimuli/bridget_bridget1.jpg"",""https://raw.githubusercontent.com/annapusok731/lookit-stimuli-template/master/test_stimuli/bridget_alexis1.jpg""]","","","","","","main_viewing","2","","","","","https://raw.githubusercontent.com/annapusok731/composite_face_effect_studies/main/CFE_Adult/misaligned/rose_liv.jpg","https://raw.githubusercontent.com/annapusok731/composite_face_effect_studies/main/CFE_Adult/misaligned/liv_rose.jpg","","","","","","","","","","","","","","","","","","","","","","","","","","","","","","","","","","","","","","","","","","","","","","","","","","","","","","","","","","","","","","","","","","","","","","","","",""
"795","
                        <div style=""text-align: center;"">
                            <p style=""color: #666; font-size: 20px; margin-top: 10px;"">Trial 2 of 96</p>
                            <h2 class=""trial-question"">Are the top parts of the faces the same or different?</h2>
                        </div>
                    ","1","html-button-response","23","108573","0.0-9.0-2.0","apogl3rm6b","Thu 11/20 7:00pm","[""https://raw.githubusercontent.com/annapusok731/lookit-stimuli-template/master/test_stimuli/bridget_bridget1.jpg"",""https://raw.githubusercontent.com/annapusok731/lookit-stimuli-template/master/test_stimuli/bridget_alexis1.jpg""]","","","","","","main","2","different","different","true","795","https://raw.githubusercontent.com/annapusok731/composite_face_effect_studies/main/CFE_Adult/misaligned/rose_liv.jpg","https://raw.githubusercontent.com/annapusok731/composite_face_effect_studies/main/CFE_Adult/misaligned/liv_rose.jpg","diff_misalign","","","","","","","","","","","","","","","","","","","","","","","","","","","","","","","","","","","","","","","","","","","","","","","","","","","","","","","","","","","","","","","","","","","","","","","",""
"null","<div class=""fixation-cross"">+</div>","null","html-keyboard-response","24","109775","0.0-10.0-0.0","apogl3rm6b","Thu 11/20 7:00pm","[""https://raw.githubusercontent.com/annapusok731/lookit-stimuli-template/master/test_stimuli/bridget_bridget1.jpg"",""https://raw.githubusercontent.com/annapusok731/lookit-stimuli-template/master/test_stimuli/bridget_alexis1.jpg""]","","","","","","","","","","","","","","","","","","","","","","","","","","","","","","","","","","","","","","","","","","","","","","","","","","","","","","","","","","","","","","","","","","","","","","","","","","","","","","","","","","","","","",""
"null","
            <div style=""text-align: center;"">
                <p style=""color: #666; font-size: 20px; margin-top: 10px; "">Trial 3 of 96</p>
                <div class=""face-images"">
                    <img src=""https://raw.githubusercontent.com/annapusok731/composite_face_effect_studies/main/CFE_Adult/aligned/harry_harry.jpg"" alt=""Face 1"">
                    <img src=""https://raw.githubusercontent.com/annapusok731/composite_face_effect_studies/main/CFE_Adult/aligned/harry_barney.jpg"" alt=""Face 2"">
                </div>
                <h2 class=""trial-question"">Are the top parts of the faces the same or different?</h2>
            </div>
        ","null","html-button-response","25","110779","0.0-10.0-1.0","apogl3rm6b","Thu 11/20 7:00pm","[""https://raw.githubusercontent.com/annapusok731/lookit-stimuli-template/master/test_stimuli/bridget_bridget1.jpg"",""https://raw.githubusercontent.com/annapusok731/lookit-stimuli-template/master/test_stimuli/bridget_alexis1.jpg""]","","","","","","main_viewing","3","","","","","https://raw.githubusercontent.com/annapusok731/composite_face_effect_studies/main/CFE_Adult/aligned/harry_harry.jpg","https://raw.githubusercontent.com/annapusok731/composite_face_effect_studies/main/CFE_Adult/aligned/harry_barney.jpg","","","","","","","","","","","","","","","","","","","","","","","","","","","","","","","","","","","","","","","","","","","","","","","","","","","","","","","","","","","","","","","","","","","","","","","","",""
"942","
                        <div style=""text-align: center;"">
                            <p style=""color: #666; font-size: 20px; margin-top: 10px;"">Trial 3 of 96</p>
                            <h2 class=""trial-question"">Are the top parts of the faces the same or different?</h2>
                        </div>
                    ","0","html-button-response","26","111722","0.0-10.0-2.0","apogl3rm6b","Thu 11/20 7:00pm","[""https://raw.githubusercontent.com/annapusok731/lookit-stimuli-template/master/test_stimuli/bridget_bridget1.jpg"",""https://raw.githubusercontent.com/annapusok731/lookit-stimuli-template/master/test_stimuli/bridget_alexis1.jpg""]","","","","","","main","3","same","same","true","942","https://raw.githubusercontent.com/annapusok731/composite_face_effect_studies/main/CFE_Adult/aligned/harry_harry.jpg","https://raw.githubusercontent.com/annapusok731/composite_face_effect_studies/main/CFE_Adult/aligned/harry_barney.jpg","same_aligned","","","","","","","","","","","","","","","","","","","","","","","","","","","","","","","","","","","","","","","","","","","","","","","","","","","","","","","","","","","","","","","","","","","","","","","",""
"null","<div class=""fixation-cross"">+</div>","null","html-keyboard-response","27","112924","0.0-11.0-0.0","apogl3rm6b","Thu 11/20 7:00pm","[""https://raw.githubusercontent.com/annapusok731/lookit-stimuli-template/master/test_stimuli/bridget_bridget1.jpg"",""https://raw.githubusercontent.com/annapusok731/lookit-stimuli-template/master/test_stimuli/bridget_alexis1.jpg""]","","","","","","","","","","","","","","","","","","","","","","","","","","","","","","","","","","","","","","","","","","","","","","","","","","","","","","","","","","","","","","","","","","","","","","","","","","","","","","","","","","","","","",""
"null","
            <div style=""text-align: center;"">
                <p style=""color: #666; font-size: 20px; margin-top: 10px; "">Trial 4 of 96</p>
                <div class=""face-images"">
                    <img src=""https://raw.githubusercontent.com/annapusok731/composite_face_effect_studies/main/CFE_Adult/aligned/sandy_sandy.jpg"" alt=""Face 1"">
                    <img src=""https://raw.githubusercontent.com/annapusok731/composite_face_effect_studies/main/CFE_Adult/aligned/sandy_sierra.jpg"" alt=""Face 2"">
                </div>
                <h2 class=""trial-question"">Are the top parts of the faces the same or different?</h2>
            </div>
        ","null","html-button-response","28","113928","0.0-11.0-1.0","apogl3rm6b","Thu 11/20 7:00pm","[""https://raw.githubusercontent.com/annapusok731/lookit-stimuli-template/master/test_stimuli/bridget_bridget1.jpg"",""https://raw.githubusercontent.com/annapusok731/lookit-stimuli-template/master/test_stimuli/bridget_alexis1.jpg""]","","","","","","main_viewing","4","","","","","https://raw.githubusercontent.com/annapusok731/composite_face_effect_studies/main/CFE_Adult/aligned/sandy_sandy.jpg","https://raw.githubusercontent.com/annapusok731/composite_face_effect_studies/main/CFE_Adult/aligned/sandy_sierra.jpg","","","","","","","","","","","","","","","","","","","","","","","","","","","","","","","","","","","","","","","","","","","","","","","","","","","","","","","","","","","","","","","","","","","","","","","","",""
"1076","
                        <div style=""text-align: center;"">
                            <p style=""color: #666; font-size: 20px; margin-top: 10px;"">Trial 4 of 96</p>
                            <h2 class=""trial-question"">Are the top parts of the faces the same or different?</h2>
                        </div>
                    ","1","html-button-response","29","115005","0.0-11.0-2.0","apogl3rm6b","Thu 11/20 7:00pm","[""https://raw.githubusercontent.com/annapusok731/lookit-stimuli-template/master/test_stimuli/bridget_bridget1.jpg"",""https://raw.githubusercontent.com/annapusok731/lookit-stimuli-template/master/test_stimuli/bridget_alexis1.jpg""]","","","","","","main","4","same","different","false","1076","https://raw.githubusercontent.com/annapusok731/composite_face_effect_studies/main/CFE_Adult/aligned/sandy_sandy.jpg","https://raw.githubusercontent.com/annapusok731/composite_face_effect_studies/main/CFE_Adult/aligned/sandy_sierra.jpg","same_aligned","","","","","","","","","","","","","","","","","","","","","","","","","","","","","","","","","","","","","","","","","","","","","","","","","","","","","","","","","","","","","","","","","","","","","","","",""
"null","<div class=""fixation-cross"">+</div>","null","html-keyboard-response","30","116206","0.0-12.0-0.0","apogl3rm6b","Thu 11/20 7:00pm","[""https://raw.githubusercontent.com/annapusok731/lookit-stimuli-template/master/test_stimuli/bridget_bridget1.jpg"",""https://raw.githubusercontent.com/annapusok731/lookit-stimuli-template/master/test_stimuli/bridget_alexis1.jpg""]","","","","","","","","","","","","","","","","","","","","","","","","","","","","","","","","","","","","","","","","","","","","","","","","","","","","","","","","","","","","","","","","","","","","","","","","","","","","","","","","","","","","","",""
"null","
            <div style=""text-align: center;"">
                <p style=""color: #666; font-size: 20px; margin-top: 10px; "">Trial 5 of 96</p>
                <div class=""face-images"">
                    <img src=""https://raw.githubusercontent.com/annapusok731/composite_face_effect_studies/main/CFE_Adult/aligned/rory_rory.jpg"" alt=""Face 1"">
                    <img src=""https://raw.githubusercontent.com/annapusok731/composite_face_effect_studies/main/CFE_Adult/aligned/rory_gloria.jpg"" alt=""Face 2"">
                </div>
                <h2 class=""trial-question"">Are the top parts of the faces the same or different?</h2>
            </div>
        ","null","html-button-response","31","117210","0.0-12.0-1.0","apogl3rm6b","Thu 11/20 7:00pm","[""https://raw.githubusercontent.com/annapusok731/lookit-stimuli-template/master/test_stimuli/bridget_bridget1.jpg"",""https://raw.githubusercontent.com/annapusok731/lookit-stimuli-template/master/test_stimuli/bridget_alexis1.jpg""]","","","","","","main_viewing","5","","","","","https://raw.githubusercontent.com/annapusok731/composite_face_effect_studies/main/CFE_Adult/aligned/rory_rory.jpg","https://raw.githubusercontent.com/annapusok731/composite_face_effect_studies/main/CFE_Adult/aligned/rory_gloria.jpg","","","","","","","","","","","","","","","","","","","","","","","","","","","","","","","","","","","","","","","","","","","","","","","","","","","","","","","","","","","","","","","","","","","","","","","","",""
"744","
                        <div style=""text-align: center;"">
                            <p style=""color: #666; font-size: 20px; margin-top: 10px;"">Trial 5 of 96</p>
                            <h2 class=""trial-question"">Are the top parts of the faces the same or different?</h2>
                        </div>
                    ","0","html-button-response","32","117955","0.0-12.0-2.0","apogl3rm6b","Thu 11/20 7:00pm","[""https://raw.githubusercontent.com/annapusok731/lookit-stimuli-template/master/test_stimuli/bridget_bridget1.jpg"",""https://raw.githubusercontent.com/annapusok731/lookit-stimuli-template/master/test_stimuli/bridget_alexis1.jpg""]","","","","","","main","5","same","same","true","744","https://raw.githubusercontent.com/annapusok731/composite_face_effect_studies/main/CFE_Adult/aligned/rory_rory.jpg","https://raw.githubusercontent.com/annapusok731/composite_face_effect_studies/main/CFE_Adult/aligned/rory_gloria.jpg","same_aligned","","","","","","","","","","","","","","","","","","","","","","","","","","","","","","","","","","","","","","","","","","","","","","","","","","","","","","","","","","","","","","","","","","","","","","","",""
"null","<div class=""fixation-cross"">+</div>","null","html-keyboard-response","33","119157","0.0-13.0-0.0","apogl3rm6b","Thu 11/20 7:00pm","[""https://raw.githubusercontent.com/annapusok731/lookit-stimuli-template/master/test_stimuli/bridget_bridget1.jpg"",""https://raw.githubusercontent.com/annapusok731/lookit-stimuli-template/master/test_stimuli/bridget_alexis1.jpg""]","","","","","","","","","","","","","","","","","","","","","","","","","","","","","","","","","","","","","","","","","","","","","","","","","","","","","","","","","","","","","","","","","","","","","","","","","","","","","","","","","","","","","",""
"null","
            <div style=""text-align: center;"">
                <p style=""color: #666; font-size: 20px; margin-top: 10px; "">Trial 6 of 96</p>
                <div class=""face-images"">
                    <img src=""https://raw.githubusercontent.com/annapusok731/composite_face_effect_studies/main/CFE_Adult/aligned/carpenter_billy.jpg"" alt=""Face 1"">
                    <img src=""https://raw.githubusercontent.com/annapusok731/composite_face_effect_studies/main/CFE_Adult/aligned/billy_carpenter.jpg"" alt=""Face 2"">
                </div>
                <h2 class=""trial-question"">Are the top parts of the faces the same or different?</h2>
            </div>
        ","null","html-button-response","34","120160","0.0-13.0-1.0","apogl3rm6b","Thu 11/20 7:00pm","[""https://raw.githubusercontent.com/annapusok731/lookit-stimuli-template/master/test_stimuli/bridget_bridget1.jpg"",""https://raw.githubusercontent.com/annapusok731/lookit-stimuli-template/master/test_stimuli/bridget_alexis1.jpg""]","","","","","","main_viewing","6","","","","","https://raw.githubusercontent.com/annapusok731/composite_face_effect_studies/main/CFE_Adult/aligned/carpenter_billy.jpg","https://raw.githubusercontent.com/annapusok731/composite_face_effect_studies/main/CFE_Adult/aligned/billy_carpenter.jpg","","","","","","","","","","","","","","","","","","","","","","","","","","","","","","","","","","","","","","","","","","","","","","","","","","","","","","","","","","","","","","","","","","","","","","","","",""
"744","
                        <div style=""text-align: center;"">
                            <p style=""color: #666; font-size: 20px; margin-top: 10px;"">Trial 6 of 96</p>
                            <h2 class=""trial-question"">Are the top parts of the faces the same or different?</h2>
                        </div>
                    ","1","html-button-response","35","120905","0.0-13.0-2.0","apogl3rm6b","Thu 11/20 7:00pm","[""https://raw.githubusercontent.com/annapusok731/lookit-stimuli-template/master/test_stimuli/bridget_bridget1.jpg"",""https://raw.githubusercontent.com/annapusok731/lookit-stimuli-template/master/test_stimuli/bridget_alexis1.jpg""]","","","","","","main","6","different","different","true","744","https://raw.githubusercontent.com/annapusok731/composite_face_effect_studies/main/CFE_Adult/aligned/carpenter_billy.jpg","https://raw.githubusercontent.com/annapusok731/composite_face_effect_studies/main/CFE_Adult/aligned/billy_carpenter.jpg","diff_align","","","","","","","","","","","","","","","","","","","","","","","","","","","","","","","","","","","","","","","","","","","","","","","","","","","","","","","","","","","","","","","","","","","","","","","",""
"null","<div class=""fixation-cross"">+</div>","null","html-keyboard-response","36","122107","0.0-14.0-0.0","apogl3rm6b","Thu 11/20 7:00pm","[""https://raw.githubusercontent.com/annapusok731/lookit-stimuli-template/master/test_stimuli/bridget_bridget1.jpg"",""https://raw.githubusercontent.com/annapusok731/lookit-stimuli-template/master/test_stimuli/bridget_alexis1.jpg""]","","","","","","","","","","","","","","","","","","","","","","","","","","","","","","","","","","","","","","","","","","","","","","","","","","","","","","","","","","","","","","","","","","","","","","","","","","","","","","","","","","","","","",""
"null","
            <div style=""text-align: center;"">
                <p style=""color: #666; font-size: 20px; margin-top: 10px; "">Trial 7 of 96</p>
                <div class=""face-images"">
                    <img src=""https://raw.githubusercontent.com/annapusok731/composite_face_effect_studies/main/CFE_Adult/aligned/fred_finn.jpg"" alt=""Face 1"">
                    <img src=""https://raw.githubusercontent.com/annapusok731/composite_face_effect_studies/main/CFE_Adult/aligned/fred_fred.jpg"" alt=""Face 2"">
                </div>
                <h2 class=""trial-question"">Are the top parts of the faces the same or different?</h2>
            </div>
        ","null","html-button-response","37","123110","0.0-14.0-1.0","apogl3rm6b","Thu 11/20 7:00pm","[""https://raw.githubusercontent.com/annapusok731/lookit-stimuli-template/master/test_stimuli/bridget_bridget1.jpg"",""https://raw.githubusercontent.com/annapusok731/lookit-stimuli-template/master/test_stimuli/bridget_alexis1.jpg""]","","","","","","main_viewing","7","","","","","https://raw.githubusercontent.com/annapusok731/composite_face_effect_studies/main/CFE_Adult/aligned/fred_finn.jpg","https://raw.githubusercontent.com/annapusok731/composite_face_effect_studies/main/CFE_Adult/aligned/fred_fred.jpg","","","","","","","","","","","","","","","","","","","","","","","","","","","","","","","","","","","","","","","","","","","","","","","","","","","","","","","","","","","","","","","","","","","","","","","","",""
"711","
                        <div style=""text-align: center;"">
                            <p style=""color: #666; font-size: 20px; margin-top: 10px;"">Trial 7 of 96</p>
                            <h2 class=""trial-question"">Are the top parts of the faces the same or different?</h2>
                        </div>
                    ","1","html-button-response","38","123821","0.0-14.0-2.0","apogl3rm6b","Thu 11/20 7:00pm","[""https://raw.githubusercontent.com/annapusok731/lookit-stimuli-template/master/test_stimuli/bridget_bridget1.jpg"",""https://raw.githubusercontent.com/annapusok731/lookit-stimuli-template/master/test_stimuli/bridget_alexis1.jpg""]","","","","","","main","7","same","different","false","711","https://raw.githubusercontent.com/annapusok731/composite_face_effect_studies/main/CFE_Adult/aligned/fred_finn.jpg","https://raw.githubusercontent.com/annapusok731/composite_face_effect_studies/main/CFE_Adult/aligned/fred_fred.jpg","same_aligned","","","","","","","","","","","","","","","","","","","","","","","","","","","","","","","","","","","","","","","","","","","","","","","","","","","","","","","","","","","","","","","","","","","","","","","",""
"null","<div class=""fixation-cross"">+</div>","null","html-keyboard-response","39","125024","0.0-15.0-0.0","apogl3rm6b","Thu 11/20 7:00pm","[""https://raw.githubusercontent.com/annapusok731/lookit-stimuli-template/master/test_stimuli/bridget_bridget1.jpg"",""https://raw.githubusercontent.com/annapusok731/lookit-stimuli-template/master/test_stimuli/bridget_alexis1.jpg""]","","","","","","","","","","","","","","","","","","","","","","","","","","","","","","","","","","","","","","","","","","","","","","","","","","","","","","","","","","","","","","","","","","","","","","","","","","","","","","","","","","","","","",""
"null","
            <div style=""text-align: center;"">
                <p style=""color: #666; font-size: 20px; margin-top: 10px; "">Trial 8 of 96</p>
                <div class=""face-images"">
                    <img src=""https://raw.githubusercontent.com/annapusok731/composite_face_effect_studies/main/CFE_Adult/misaligned/gavin_noah.jpg"" alt=""Face 1"">
                    <img src=""https://raw.githubusercontent.com/annapusok731/composite_face_effect_studies/main/CFE_Adult/misaligned/gavin_gavin.jpg"" alt=""Face 2"">
                </div>
                <h2 class=""trial-question"">Are the top parts of the faces the same or different?</h2>
            </div>
        ","null","html-button-response","40","126026","0.0-15.0-1.0","apogl3rm6b","Thu 11/20 7:00pm","[""https://raw.githubusercontent.com/annapusok731/lookit-stimuli-template/master/test_stimuli/bridget_bridget1.jpg"",""https://raw.githubusercontent.com/annapusok731/lookit-stimuli-template/master/test_stimuli/bridget_alexis1.jpg""]","","","","","","main_viewing","8","","","","","https://raw.githubusercontent.com/annapusok731/composite_face_effect_studies/main/CFE_Adult/misaligned/gavin_noah.jpg","https://raw.githubusercontent.com/annapusok731/composite_face_effect_studies/main/CFE_Adult/misaligned/gavin_gavin.jpg","","","","","","","","","","","","","","","","","","","","","","","","","","","","","","","","","","","","","","","","","","","","","","","","","","","","","","","","","","","","","","","","","","","","","","","","",""
"745","
                        <div style=""text-align: center;"">
                            <p style=""color: #666; font-size: 20px; margin-top: 10px;"">Trial 8 of 96</p>
                            <h2 class=""trial-question"">Are the top parts of the faces the same or different?</h2>
                        </div>
                    ","0","html-button-response","41","126771","0.0-15.0-2.0","apogl3rm6b","Thu 11/20 7:00pm","[""https://raw.githubusercontent.com/annapusok731/lookit-stimuli-template/master/test_stimuli/bridget_bridget1.jpg"",""https://raw.githubusercontent.com/annapusok731/lookit-stimuli-template/master/test_stimuli/bridget_alexis1.jpg""]","","","","","","main","8","same","same","true","745","https://raw.githubusercontent.com/annapusok731/composite_face_effect_studies/main/CFE_Adult/misaligned/gavin_noah.jpg","https://raw.githubusercontent.com/annapusok731/composite_face_effect_studies/main/CFE_Adult/misaligned/gavin_gavin.jpg","same_misaligned","","","","","","","","","","","","","","","","","","","","","","","","","","","","","","","","","","","","","","","","","","","","","","","","","","","","","","","","","","","","","","","","","","","","","","","",""
"null","<div class=""fixation-cross"">+</div>","null","html-keyboard-response","42","127974","0.0-16.0-0.0","apogl3rm6b","Thu 11/20 7:00pm","[""https://raw.githubusercontent.com/annapusok731/lookit-stimuli-template/master/test_stimuli/bridget_bridget1.jpg"",""https://raw.githubusercontent.com/annapusok731/lookit-stimuli-template/master/test_stimuli/bridget_alexis1.jpg""]","","","","","","","","","","","","","","","","","","","","","","","","","","","","","","","","","","","","","","","","","","","","","","","","","","","","","","","","","","","","","","","","","","","","","","","","","","","","","","","","","","","","","",""
"null","
            <div style=""text-align: center;"">
                <p style=""color: #666; font-size: 20px; margin-top: 10px; "">Trial 9 of 96</p>
                <div class=""face-images"">
                    <img src=""https://raw.githubusercontent.com/annapusok731/composite_face_effect_studies/main/CFE_Adult/misaligned/tom_owen.jpg"" alt=""Face 1"">
                    <img src=""https://raw.githubusercontent.com/annapusok731/composite_face_effect_studies/main/CFE_Adult/misaligned/tom_tom.jpg"" alt=""Face 2"">
                </div>
                <h2 class=""trial-question"">Are the top parts of the faces the same or different?</h2>
            </div>
        ","null","html-button-response","43","128977","0.0-16.0-1.0","apogl3rm6b","Thu 11/20 7:00pm","[""https://raw.githubusercontent.com/annapusok731/lookit-stimuli-template/master/test_stimuli/bridget_bridget1.jpg"",""https://raw.githubusercontent.com/annapusok731/lookit-stimuli-template/master/test_stimuli/bridget_alexis1.jpg""]","","","","","","main_viewing","9","","","","","https://raw.githubusercontent.com/annapusok731/composite_face_effect_studies/main/CFE_Adult/misaligned/tom_owen.jpg","https://raw.githubusercontent.com/annapusok731/composite_face_effect_studies/main/CFE_Adult/misaligned/tom_tom.jpg","","","","","","","","","","","","","","","","","","","","","","","","","","","","","","","","","","","","","","","","","","","","","","","","","","","","","","","","","","","","","","","","","","","","","","","","",""
"710","
                        <div style=""text-align: center;"">
                            <p style=""color: #666; font-size: 20px; margin-top: 10px;"">Trial 9 of 96</p>
                            <h2 class=""trial-question"">Are the top parts of the faces the same or different?</h2>
                        </div>
                    ","0","html-button-response","44","129688","0.0-16.0-2.0","apogl3rm6b","Thu 11/20 7:00pm","[""https://raw.githubusercontent.com/annapusok731/lookit-stimuli-template/master/test_stimuli/bridget_bridget1.jpg"",""https://raw.githubusercontent.com/annapusok731/lookit-stimuli-template/master/test_stimuli/bridget_alexis1.jpg""]","","","","","","main","9","same","same","true","710","https://raw.githubusercontent.com/annapusok731/composite_face_effect_studies/main/CFE_Adult/misaligned/tom_owen.jpg","https://raw.githubusercontent.com/annapusok731/composite_face_effect_studies/main/CFE_Adult/misaligned/tom_tom.jpg","same_misaligned","","","","","","","","","","","","","","","","","","","","","","","","","","","","","","","","","","","","","","","","","","","","","","","","","","","","","","","","","","","","","","","","","","","","","","","",""
"null","<div class=""fixation-cross"">+</div>","null","html-keyboard-response","45","130891","0.0-17.0-0.0","apogl3rm6b","Thu 11/20 7:00pm","[""https://raw.githubusercontent.com/annapusok731/lookit-stimuli-template/master/test_stimuli/bridget_bridget1.jpg"",""https://raw.githubusercontent.com/annapusok731/lookit-stimuli-template/master/test_stimuli/bridget_alexis1.jpg""]","","","","","","","","","","","","","","","","","","","","","","","","","","","","","","","","","","","","","","","","","","","","","","","","","","","","","","","","","","","","","","","","","","","","","","","","","","","","","","","","","","","","","",""
"null","
            <div style=""text-align: center;"">
                <p style=""color: #666; font-size: 20px; margin-top: 10px; "">Trial 10 of 96</p>
                <div class=""face-images"">
                    <img src=""https://raw.githubusercontent.com/annapusok731/composite_face_effect_studies/main/CFE_Adult/misaligned/beck_pamela.jpg"" alt=""Face 1"">
                    <img src=""https://raw.githubusercontent.com/annapusok731/composite_face_effect_studies/main/CFE_Adult/misaligned/pamela_beck.jpg"" alt=""Face 2"">
                </div>
                <h2 class=""trial-question"">Are the top parts of the faces the same or different?</h2>
            </div>
        ","null","html-button-response","46","131893","0.0-17.0-1.0","apogl3rm6b","Thu 11/20 7:00pm","[""https://raw.githubusercontent.com/annapusok731/lookit-stimuli-template/master/test_stimuli/bridget_bridget1.jpg"",""https://raw.githubusercontent.com/annapusok731/lookit-stimuli-template/master/test_stimuli/bridget_alexis1.jpg""]","","","","","","main_viewing","10","","","","","https://raw.githubusercontent.com/annapusok731/composite_face_effect_studies/main/CFE_Adult/misaligned/beck_pamela.jpg","https://raw.githubusercontent.com/annapusok731/composite_face_effect_studies/main/CFE_Adult/misaligned/pamela_beck.jpg","","","","","","","","","","","","","","","","","","","","","","","","","","","","","","","","","","","","","","","","","","","","","","","","","","","","","","","","","","","","","","","","","","","","","","","","",""
"777","
                        <div style=""text-align: center;"">
                            <p style=""color: #666; font-size: 20px; margin-top: 10px;"">Trial 10 of 96</p>
                            <h2 class=""trial-question"">Are the top parts of the faces the same or different?</h2>
                        </div>
                    ","1","html-button-response","47","132672","0.0-17.0-2.0","apogl3rm6b","Thu 11/20 7:00pm","[""https://raw.githubusercontent.com/annapusok731/lookit-stimuli-template/master/test_stimuli/bridget_bridget1.jpg"",""https://raw.githubusercontent.com/annapusok731/lookit-stimuli-template/master/test_stimuli/bridget_alexis1.jpg""]","","","","","","main","10","different","different","true","777","https://raw.githubusercontent.com/annapusok731/composite_face_effect_studies/main/CFE_Adult/misaligned/beck_pamela.jpg","https://raw.githubusercontent.com/annapusok731/composite_face_effect_studies/main/CFE_Adult/misaligned/pamela_beck.jpg","diff_misalign","","","","","","","","","","","","","","","","","","","","","","","","","","","","","","","","","","","","","","","","","","","","","","","","","","","","","","","","","","","","","","","","","","","","","","","",""
"null","<div class=""fixation-cross"">+</div>","null","html-keyboard-response","48","133874","0.0-18.0-0.0","apogl3rm6b","Thu 11/20 7:00pm","[""https://raw.githubusercontent.com/annapusok731/lookit-stimuli-template/master/test_stimuli/bridget_bridget1.jpg"",""https://raw.githubusercontent.com/annapusok731/lookit-stimuli-template/master/test_stimuli/bridget_alexis1.jpg""]","","","","","","","","","","","","","","","","","","","","","","","","","","","","","","","","","","","","","","","","","","","","","","","","","","","","","","","","","","","","","","","","","","","","","","","","","","","","","","","","","","","","","",""
"null","
            <div style=""text-align: center;"">
                <p style=""color: #666; font-size: 20px; margin-top: 10px; "">Trial 11 of 96</p>
                <div class=""face-images"">
                    <img src=""https://raw.githubusercontent.com/annapusok731/composite_face_effect_studies/main/CFE_Adult/misaligned/wesley_wendall.jpg"" alt=""Face 1"">
                    <img src=""https://raw.githubusercontent.com/annapusok731/composite_face_effect_studies/main/CFE_Adult/misaligned/wendall_wesley.jpg"" alt=""Face 2"">
                </div>
                <h2 class=""trial-question"">Are the top parts of the faces the same or different?</h2>
            </div>
        ","null","html-button-response","49","134877","0.0-18.0-1.0","apogl3rm6b","Thu 11/20 7:00pm","[""https://raw.githubusercontent.com/annapusok731/lookit-stimuli-template/master/test_stimuli/bridget_bridget1.jpg"",""https://raw.githubusercontent.com/annapusok731/lookit-stimuli-template/master/test_stimuli/bridget_alexis1.jpg""]","","","","","","main_viewing","11","","","","","https://raw.githubusercontent.com/annapusok731/composite_face_effect_studies/main/CFE_Adult/misaligned/wesley_wendall.jpg","https://raw.githubusercontent.com/annapusok731/composite_face_effect_studies/main/CFE_Adult/misaligned/wendall_wesley.jpg","","","","","","","","","","","","","","","","","","","","","","","","","","","","","","","","","","","","","","","","","","","","","","","","","","","","","","","","","","","","","","","","","","","","","","","","",""
"677","
                        <div style=""text-align: center;"">
                            <p style=""color: #666; font-size: 20px; margin-top: 10px;"">Trial 11 of 96</p>
                            <h2 class=""trial-question"">Are the top parts of the faces the same or different?</h2>
                        </div>
                    ","1","html-button-response","50","135555","0.0-18.0-2.0","apogl3rm6b","Thu 11/20 7:00pm","[""https://raw.githubusercontent.com/annapusok731/lookit-stimuli-template/master/test_stimuli/bridget_bridget1.jpg"",""https://raw.githubusercontent.com/annapusok731/lookit-stimuli-template/master/test_stimuli/bridget_alexis1.jpg""]","","","","","","main","11","different","different","true","677","https://raw.githubusercontent.com/annapusok731/composite_face_effect_studies/main/CFE_Adult/misaligned/wesley_wendall.jpg","https://raw.githubusercontent.com/annapusok731/composite_face_effect_studies/main/CFE_Adult/misaligned/wendall_wesley.jpg","diff_misalign","","","","","","","","","","","","","","","","","","","","","","","","","","","","","","","","","","","","","","","","","","","","","","","","","","","","","","","","","","","","","","","","","","","","","","","",""
"null","<div class=""fixation-cross"">+</div>","null","html-keyboard-response","51","136757","0.0-19.0-0.0","apogl3rm6b","Thu 11/20 7:00pm","[""https://raw.githubusercontent.com/annapusok731/lookit-stimuli-template/master/test_stimuli/bridget_bridget1.jpg"",""https://raw.githubusercontent.com/annapusok731/lookit-stimuli-template/master/test_stimuli/bridget_alexis1.jpg""]","","","","","","","","","","","","","","","","","","","","","","","","","","","","","","","","","","","","","","","","","","","","","","","","","","","","","","","","","","","","","","","","","","","","","","","","","","","","","","","","","","","","","",""
"null","
            <div style=""text-align: center;"">
                <p style=""color: #666; font-size: 20px; margin-top: 10px; "">Trial 12 of 96</p>
                <div class=""face-images"">
                    <img src=""https://raw.githubusercontent.com/annapusok731/composite_face_effect_studies/main/CFE_Adult/misaligned/ella_lola.jpg"" alt=""Face 1"">
                    <img src=""https://raw.githubusercontent.com/annapusok731/composite_face_effect_studies/main/CFE_Adult/misaligned/lola_ella.jpg"" alt=""Face 2"">
                </div>
                <h2 class=""trial-question"">Are the top parts of the faces the same or different?</h2>
            </div>
        ","null","html-button-response","52","137760","0.0-19.0-1.0","apogl3rm6b","Thu 11/20 7:00pm","[""https://raw.githubusercontent.com/annapusok731/lookit-stimuli-template/master/test_stimuli/bridget_bridget1.jpg"",""https://raw.githubusercontent.com/annapusok731/lookit-stimuli-template/master/test_stimuli/bridget_alexis1.jpg""]","","","","","","main_viewing","12","","","","","https://raw.githubusercontent.com/annapusok731/composite_face_effect_studies/main/CFE_Adult/misaligned/ella_lola.jpg","https://raw.githubusercontent.com/annapusok731/composite_face_effect_studies/main/CFE_Adult/misaligned/lola_ella.jpg","","","","","","","","","","","","","","","","","","","","","","","","","","","","","","","","","","","","","","","","","","","","","","","","","","","","","","","","","","","","","","","","","","","","","","","","",""
"561","
                        <div style=""text-align: center;"">
                            <p style=""color: #666; font-size: 20px; margin-top: 10px;"">Trial 12 of 96</p>
                            <h2 class=""trial-question"">Are the top parts of the faces the same or different?</h2>
                        </div>
                    ","1","html-button-response","53","138322","0.0-19.0-2.0","apogl3rm6b","Thu 11/20 7:00pm","[""https://raw.githubusercontent.com/annapusok731/lookit-stimuli-template/master/test_stimuli/bridget_bridget1.jpg"",""https://raw.githubusercontent.com/annapusok731/lookit-stimuli-template/master/test_stimuli/bridget_alexis1.jpg""]","","","","","","main","12","different","different","true","561","https://raw.githubusercontent.com/annapusok731/composite_face_effect_studies/main/CFE_Adult/misaligned/ella_lola.jpg","https://raw.githubusercontent.com/annapusok731/composite_face_effect_studies/main/CFE_Adult/misaligned/lola_ella.jpg","diff_misalign","","","","","","","","","","","","","","","","","","","","","","","","","","","","","","","","","","","","","","","","","","","","","","","","","","","","","","","","","","","","","","","","","","","","","","","",""
"null","<div class=""fixation-cross"">+</div>","null","html-keyboard-response","54","139524","0.0-20.0-0.0","apogl3rm6b","Thu 11/20 7:00pm","[""https://raw.githubusercontent.com/annapusok731/lookit-stimuli-template/master/test_stimuli/bridget_bridget1.jpg"",""https://raw.githubusercontent.com/annapusok731/lookit-stimuli-template/master/test_stimuli/bridget_alexis1.jpg""]","","","","","","","","","","","","","","","","","","","","","","","","","","","","","","","","","","","","","","","","","","","","","","","","","","","","","","","","","","","","","","","","","","","","","","","","","","","","","","","","","","","","","",""
"null","
            <div style=""text-align: center;"">
                <p style=""color: #666; font-size: 20px; margin-top: 10px; "">Trial 13 of 96</p>
                <div class=""face-images"">
                    <img src=""https://raw.githubusercontent.com/annapusok731/composite_face_effect_studies/main/CFE_Adult/misaligned/alex_alex.jpg"" alt=""Face 1"">
                    <img src=""https://raw.githubusercontent.com/annapusok731/composite_face_effect_studies/main/CFE_Adult/misaligned/alex_rick.jpg"" alt=""Face 2"">
                </div>
                <h2 class=""trial-question"">Are the top parts of the faces the same or different?</h2>
            </div>
        ","null","html-button-response","55","140527","0.0-20.0-1.0","apogl3rm6b","Thu 11/20 7:00pm","[""https://raw.githubusercontent.com/annapusok731/lookit-stimuli-template/master/test_stimuli/bridget_bridget1.jpg"",""https://raw.githubusercontent.com/annapusok731/lookit-stimuli-template/master/test_stimuli/bridget_alexis1.jpg""]","","","","","","main_viewing","13","","","","","https://raw.githubusercontent.com/annapusok731/composite_face_effect_studies/main/CFE_Adult/misaligned/alex_alex.jpg","https://raw.githubusercontent.com/annapusok731/composite_face_effect_studies/main/CFE_Adult/misaligned/alex_rick.jpg","","","","","","","","","","","","","","","","","","","","","","","","","","","","","","","","","","","","","","","","","","","","","","","","","","","","","","","","","","","","","","","","","","","","","","","","",""
"1211","
                        <div style=""text-align: center;"">
                            <p style=""color: #666; font-size: 20px; margin-top: 10px;"">Trial 13 of 96</p>
                            <h2 class=""trial-question"">Are the top parts of the faces the same or different?</h2>
                        </div>
                    ","1","html-button-response","56","141739","0.0-20.0-2.0","apogl3rm6b","Thu 11/20 7:00pm","[""https://raw.githubusercontent.com/annapusok731/lookit-stimuli-template/master/test_stimuli/bridget_bridget1.jpg"",""https://raw.githubusercontent.com/annapusok731/lookit-stimuli-template/master/test_stimuli/bridget_alexis1.jpg""]","","","","","","main","13","same","different","false","1211","https://raw.githubusercontent.com/annapusok731/composite_face_effect_studies/main/CFE_Adult/misaligned/alex_alex.jpg","https://raw.githubusercontent.com/annapusok731/composite_face_effect_studies/main/CFE_Adult/misaligned/alex_rick.jpg","same_misaligned","","","","","","","","","","","","","","","","","","","","","","","","","","","","","","","","","","","","","","","","","","","","","","","","","","","","","","","","","","","","","","","","","","","","","","","",""
"null","<div class=""fixation-cross"">+</div>","null","html-keyboard-response","57","142941","0.0-21.0-0.0","apogl3rm6b","Thu 11/20 7:00pm","[""https://raw.githubusercontent.com/annapusok731/lookit-stimuli-template/master/test_stimuli/bridget_bridget1.jpg"",""https://raw.githubusercontent.com/annapusok731/lookit-stimuli-template/master/test_stimuli/bridget_alexis1.jpg""]","","","","","","","","","","","","","","","","","","","","","","","","","","","","","","","","","","","","","","","","","","","","","","","","","","","","","","","","","","","","","","","","","","","","","","","","","","","","","","","","","","","","","",""
"null","
            <div style=""text-align: center;"">
                <p style=""color: #666; font-size: 20px; margin-top: 10px; "">Trial 14 of 96</p>
                <div class=""face-images"">
                    <img src=""https://raw.githubusercontent.com/annapusok731/composite_face_effect_studies/main/CFE_Adult/misaligned/laura_dolly.jpg"" alt=""Face 1"">
                    <img src=""https://raw.githubusercontent.com/annapusok731/composite_face_effect_studies/main/CFE_Adult/misaligned/dolly_laura.jpg"" alt=""Face 2"">
                </div>
                <h2 class=""trial-question"">Are the top parts of the faces the same or different?</h2>
            </div>
        ","null","html-button-response","58","143943","0.0-21.0-1.0","apogl3rm6b","Thu 11/20 7:00pm","[""https://raw.githubusercontent.com/annapusok731/lookit-stimuli-template/master/test_stimuli/bridget_bridget1.jpg"",""https://raw.githubusercontent.com/annapusok731/lookit-stimuli-template/master/test_stimuli/bridget_alexis1.jpg""]","","","","","","main_viewing","14","","","","","https://raw.githubusercontent.com/annapusok731/composite_face_effect_studies/main/CFE_Adult/misaligned/laura_dolly.jpg","https://raw.githubusercontent.com/annapusok731/composite_face_effect_studies/main/CFE_Adult/misaligned/dolly_laura.jpg","","","","","","","","","","","","","","","","","","","","","","","","","","","","","","","","","","","","","","","","","","","","","","","","","","","","","","","","","","","","","","","","","","","","","","","","",""
"561","
                        <div style=""text-align: center;"">
                            <p style=""color: #666; font-size: 20px; margin-top: 10px;"">Trial 14 of 96</p>
                            <h2 class=""trial-question"">Are the top parts of the faces the same or different?</h2>
                        </div>
                    ","1","html-button-response","59","144511","0.0-21.0-2.0","apogl3rm6b","Thu 11/20 7:00pm","[""https://raw.githubusercontent.com/annapusok731/lookit-stimuli-template/master/test_stimuli/bridget_bridget1.jpg"",""https://raw.githubusercontent.com/annapusok731/lookit-stimuli-template/master/test_stimuli/bridget_alexis1.jpg""]","","","","","","main","14","different","different","true","561","https://raw.githubusercontent.com/annapusok731/composite_face_effect_studies/main/CFE_Adult/misaligned/laura_dolly.jpg","https://raw.githubusercontent.com/annapusok731/composite_face_effect_studies/main/CFE_Adult/misaligned/dolly_laura.jpg","diff_misalign","","","","","","","","","","","","","","","","","","","","","","","","","","","","","","","","","","","","","","","","","","","","","","","","","","","","","","","","","","","","","","","","","","","","","","","",""
"null","<div class=""fixation-cross"">+</div>","null","html-keyboard-response","60","145713","0.0-22.0-0.0","apogl3rm6b","Thu 11/20 7:00pm","[""https://raw.githubusercontent.com/annapusok731/lookit-stimuli-template/master/test_stimuli/bridget_bridget1.jpg"",""https://raw.githubusercontent.com/annapusok731/lookit-stimuli-template/master/test_stimuli/bridget_alexis1.jpg""]","","","","","","","","","","","","","","","","","","","","","","","","","","","","","","","","","","","","","","","","","","","","","","","","","","","","","","","","","","","","","","","","","","","","","","","","","","","","","","","","","","","","","",""
"null","
            <div style=""text-align: center;"">
                <p style=""color: #666; font-size: 20px; margin-top: 10px; "">Trial 15 of 96</p>
                <div class=""face-images"">
                    <img src=""https://raw.githubusercontent.com/annapusok731/composite_face_effect_studies/main/CFE_Adult/misaligned/brianne_meredith.jpg"" alt=""Face 1"">
                    <img src=""https://raw.githubusercontent.com/annapusok731/composite_face_effect_studies/main/CFE_Adult/misaligned/brianne_brianne.jpg"" alt=""Face 2"">
                </div>
                <h2 class=""trial-question"">Are the top parts of the faces the same or different?</h2>
            </div>
        ","null","html-button-response","61","146716","0.0-22.0-1.0","apogl3rm6b","Thu 11/20 7:00pm","[""https://raw.githubusercontent.com/annapusok731/lookit-stimuli-template/master/test_stimuli/bridget_bridget1.jpg"",""https://raw.githubusercontent.com/annapusok731/lookit-stimuli-template/master/test_stimuli/bridget_alexis1.jpg""]","","","","","","main_viewing","15","","","","","https://raw.githubusercontent.com/annapusok731/composite_face_effect_studies/main/CFE_Adult/misaligned/brianne_meredith.jpg","https://raw.githubusercontent.com/annapusok731/composite_face_effect_studies/main/CFE_Adult/misaligned/brianne_brianne.jpg","","","","","","","","","","","","","","","","","","","","","","","","","","","","","","","","","","","","","","","","","","","","","","","","","","","","","","","","","","","","","","","","","","","","","","","","",""
"505","
                        <div style=""text-align: center;"">
                            <p style=""color: #666; font-size: 20px; margin-top: 10px;"">Trial 15 of 96</p>
                            <h2 class=""trial-question"">Are the top parts of the faces the same or different?</h2>
                        </div>
                    ","1","html-button-response","62","147222","0.0-22.0-2.0","apogl3rm6b","Thu 11/20 7:00pm","[""https://raw.githubusercontent.com/annapusok731/lookit-stimuli-template/master/test_stimuli/bridget_bridget1.jpg"",""https://raw.githubusercontent.com/annapusok731/lookit-stimuli-template/master/test_stimuli/bridget_alexis1.jpg""]","","","","","","main","15","same","different","false","505","https://raw.githubusercontent.com/annapusok731/composite_face_effect_studies/main/CFE_Adult/misaligned/brianne_meredith.jpg","https://raw.githubusercontent.com/annapusok731/composite_face_effect_studies/main/CFE_Adult/misaligned/brianne_brianne.jpg","same_misaligned","","","","","","","","","","","","","","","","","","","","","","","","","","","","","","","","","","","","","","","","","","","","","","","","","","","","","","","","","","","","","","","","","","","","","","","",""
"null","<div class=""fixation-cross"">+</div>","null","html-keyboard-response","63","148425","0.0-23.0-0.0","apogl3rm6b","Thu 11/20 7:00pm","[""https://raw.githubusercontent.com/annapusok731/lookit-stimuli-template/master/test_stimuli/bridget_bridget1.jpg"",""https://raw.githubusercontent.com/annapusok731/lookit-stimuli-template/master/test_stimuli/bridget_alexis1.jpg""]","","","","","","","","","","","","","","","","","","","","","","","","","","","","","","","","","","","","","","","","","","","","","","","","","","","","","","","","","","","","","","","","","","","","","","","","","","","","","","","","","","","","","",""
"null","
            <div style=""text-align: center;"">
                <p style=""color: #666; font-size: 20px; margin-top: 10px; "">Trial 16 of 96</p>
                <div class=""face-images"">
                    <img src=""https://raw.githubusercontent.com/annapusok731/composite_face_effect_studies/main/CFE_Adult/aligned/astra_francesca.jpg"" alt=""Face 1"">
                    <img src=""https://raw.githubusercontent.com/annapusok731/composite_face_effect_studies/main/CFE_Adult/aligned/astra_astra.jpg"" alt=""Face 2"">
                </div>
                <h2 class=""trial-question"">Are the top parts of the faces the same or different?</h2>
            </div>
        ","null","html-button-response","64","149427","0.0-23.0-1.0","apogl3rm6b","Thu 11/20 7:00pm","[""https://raw.githubusercontent.com/annapusok731/lookit-stimuli-template/master/test_stimuli/bridget_bridget1.jpg"",""https://raw.githubusercontent.com/annapusok731/lookit-stimuli-template/master/test_stimuli/bridget_alexis1.jpg""]","","","","","","main_viewing","16","","","","","https://raw.githubusercontent.com/annapusok731/composite_face_effect_studies/main/CFE_Adult/aligned/astra_francesca.jpg","https://raw.githubusercontent.com/annapusok731/composite_face_effect_studies/main/CFE_Adult/aligned/astra_astra.jpg","","","","","","","","","","","","","","","","","","","","","","","","","","","","","","","","","","","","","","","","","","","","","","","","","","","","","","","","","","","","","","","","","","","","","","","","",""
"477","
                        <div style=""text-align: center;"">
                            <p style=""color: #666; font-size: 20px; margin-top: 10px;"">Trial 16 of 96</p>
                            <h2 class=""trial-question"">Are the top parts of the faces the same or different?</h2>
                        </div>
                    ","1","html-button-response","65","149905","0.0-23.0-2.0","apogl3rm6b","Thu 11/20 7:00pm","[""https://raw.githubusercontent.com/annapusok731/lookit-stimuli-template/master/test_stimuli/bridget_bridget1.jpg"",""https://raw.githubusercontent.com/annapusok731/lookit-stimuli-template/master/test_stimuli/bridget_alexis1.jpg""]","","","","","","main","16","same","different","false","477","https://raw.githubusercontent.com/annapusok731/composite_face_effect_studies/main/CFE_Adult/aligned/astra_francesca.jpg","https://raw.githubusercontent.com/annapusok731/composite_face_effect_studies/main/CFE_Adult/aligned/astra_astra.jpg","same_aligned","","","","","","","","","","","","","","","","","","","","","","","","","","","","","","","","","","","","","","","","","","","","","","","","","","","","","","","","","","","","","","","","","","","","","","","",""
"null","<div class=""fixation-cross"">+</div>","null","html-keyboard-response","66","151107","0.0-24.0-0.0","apogl3rm6b","Thu 11/20 7:00pm","[""https://raw.githubusercontent.com/annapusok731/lookit-stimuli-template/master/test_stimuli/bridget_bridget1.jpg"",""https://raw.githubusercontent.com/annapusok731/lookit-stimuli-template/master/test_stimuli/bridget_alexis1.jpg""]","","","","","","","","","","","","","","","","","","","","","","","","","","","","","","","","","","","","","","","","","","","","","","","","","","","","","","","","","","","","","","","","","","","","","","","","","","","","","","","","","","","","","",""
"null","
            <div style=""text-align: center;"">
                <p style=""color: #666; font-size: 20px; margin-top: 10px; "">Trial 17 of 96</p>
                <div class=""face-images"">
                    <img src=""https://raw.githubusercontent.com/annapusok731/composite_face_effect_studies/main/CFE_Adult/aligned/owen_tom.jpg"" alt=""Face 1"">
                    <img src=""https://raw.githubusercontent.com/annapusok731/composite_face_effect_studies/main/CFE_Adult/aligned/owen_owen.jpg"" alt=""Face 2"">
                </div>
                <h2 class=""trial-question"">Are the top parts of the faces the same or different?</h2>
            </div>
        ","null","html-button-response","67","152110","0.0-24.0-1.0","apogl3rm6b","Thu 11/20 7:00pm","[""https://raw.githubusercontent.com/annapusok731/lookit-stimuli-template/master/test_stimuli/bridget_bridget1.jpg"",""https://raw.githubusercontent.com/annapusok731/lookit-stimuli-template/master/test_stimuli/bridget_alexis1.jpg""]","","","","","","main_viewing","17","","","","","https://raw.githubusercontent.com/annapusok731/composite_face_effect_studies/main/CFE_Adult/aligned/owen_tom.jpg","https://raw.githubusercontent.com/annapusok731/composite_face_effect_studies/main/CFE_Adult/aligned/owen_owen.jpg","","","","","","","","","","","","","","","","","","","","","","","","","","","","","","","","","","","","","","","","","","","","","","","","","","","","","","","","","","","","","","","","","","","","","","","","",""
"628","
                        <div style=""text-align: center;"">
                            <p style=""color: #666; font-size: 20px; margin-top: 10px;"">Trial 17 of 96</p>
                            <h2 class=""trial-question"">Are the top parts of the faces the same or different?</h2>
                        </div>
                    ","1","html-button-response","68","152739","0.0-24.0-2.0","apogl3rm6b","Thu 11/20 7:00pm","[""https://raw.githubusercontent.com/annapusok731/lookit-stimuli-template/master/test_stimuli/bridget_bridget1.jpg"",""https://raw.githubusercontent.com/annapusok731/lookit-stimuli-template/master/test_stimuli/bridget_alexis1.jpg""]","","","","","","main","17","same","different","false","628","https://raw.githubusercontent.com/annapusok731/composite_face_effect_studies/main/CFE_Adult/aligned/owen_tom.jpg","https://raw.githubusercontent.com/annapusok731/composite_face_effect_studies/main/CFE_Adult/aligned/owen_owen.jpg","same_aligned","","","","","","","","","","","","","","","","","","","","","","","","","","","","","","","","","","","","","","","","","","","","","","","","","","","","","","","","","","","","","","","","","","","","","","","",""
"null","<div class=""fixation-cross"">+</div>","null","html-keyboard-response","69","153940","0.0-25.0-0.0","apogl3rm6b","Thu 11/20 7:00pm","[""https://raw.githubusercontent.com/annapusok731/lookit-stimuli-template/master/test_stimuli/bridget_bridget1.jpg"",""https://raw.githubusercontent.com/annapusok731/lookit-stimuli-template/master/test_stimuli/bridget_alexis1.jpg""]","","","","","","","","","","","","","","","","","","","","","","","","","","","","","","","","","","","","","","","","","","","","","","","","","","","","","","","","","","","","","","","","","","","","","","","","","","","","","","","","","","","","","",""
"null","
            <div style=""text-align: center;"">
                <p style=""color: #666; font-size: 20px; margin-top: 10px; "">Trial 18 of 96</p>
                <div class=""face-images"">
                    <img src=""https://raw.githubusercontent.com/annapusok731/composite_face_effect_studies/main/CFE_Adult/aligned/lili_emma.jpg"" alt=""Face 1"">
                    <img src=""https://raw.githubusercontent.com/annapusok731/composite_face_effect_studies/main/CFE_Adult/aligned/emma_lili.jpg"" alt=""Face 2"">
                </div>
                <h2 class=""trial-question"">Are the top parts of the faces the same or different?</h2>
            </div>
        ","null","html-button-response","70","154943","0.0-25.0-1.0","apogl3rm6b","Thu 11/20 7:00pm","[""https://raw.githubusercontent.com/annapusok731/lookit-stimuli-template/master/test_stimuli/bridget_bridget1.jpg"",""https://raw.githubusercontent.com/annapusok731/lookit-stimuli-template/master/test_stimuli/bridget_alexis1.jpg""]","","","","","","main_viewing","18","","","","","https://raw.githubusercontent.com/annapusok731/composite_face_effect_studies/main/CFE_Adult/aligned/lili_emma.jpg","https://raw.githubusercontent.com/annapusok731/composite_face_effect_studies/main/CFE_Adult/aligned/emma_lili.jpg","","","","","","","","","","","","","","","","","","","","","","","","","","","","","","","","","","","","","","","","","","","","","","","","","","","","","","","","","","","","","","","","","","","","","","","","",""
"712","
                        <div style=""text-align: center;"">
                            <p style=""color: #666; font-size: 20px; margin-top: 10px;"">Trial 18 of 96</p>
                            <h2 class=""trial-question"">Are the top parts of the faces the same or different?</h2>
                        </div>
                    ","1","html-button-response","71","155656","0.0-25.0-2.0","apogl3rm6b","Thu 11/20 7:00pm","[""https://raw.githubusercontent.com/annapusok731/lookit-stimuli-template/master/test_stimuli/bridget_bridget1.jpg"",""https://raw.githubusercontent.com/annapusok731/lookit-stimuli-template/master/test_stimuli/bridget_alexis1.jpg""]","","","","","","main","18","different","different","true","712","https://raw.githubusercontent.com/annapusok731/composite_face_effect_studies/main/CFE_Adult/aligned/lili_emma.jpg","https://raw.githubusercontent.com/annapusok731/composite_face_effect_studies/main/CFE_Adult/aligned/emma_lili.jpg","diff_align","","","","","","","","","","","","","","","","","","","","","","","","","","","","","","","","","","","","","","","","","","","","","","","","","","","","","","","","","","","","","","","","","","","","","","","",""
"null","<div class=""fixation-cross"">+</div>","null","html-keyboard-response","72","156858","0.0-26.0-0.0","apogl3rm6b","Thu 11/20 7:00pm","[""https://raw.githubusercontent.com/annapusok731/lookit-stimuli-template/master/test_stimuli/bridget_bridget1.jpg"",""https://raw.githubusercontent.com/annapusok731/lookit-stimuli-template/master/test_stimuli/bridget_alexis1.jpg""]","","","","","","","","","","","","","","","","","","","","","","","","","","","","","","","","","","","","","","","","","","","","","","","","","","","","","","","","","","","","","","","","","","","","","","","","","","","","","","","","","","","","","",""
"null","
            <div style=""text-align: center;"">
                <p style=""color: #666; font-size: 20px; margin-top: 10px; "">Trial 19 of 96</p>
                <div class=""face-images"">
                    <img src=""https://raw.githubusercontent.com/annapusok731/composite_face_effect_studies/main/CFE_Adult/aligned/tina_alexis.jpg"" alt=""Face 1"">
                    <img src=""https://raw.githubusercontent.com/annapusok731/composite_face_effect_studies/main/CFE_Adult/aligned/tina_tina.jpg"" alt=""Face 2"">
                </div>
                <h2 class=""trial-question"">Are the top parts of the faces the same or different?</h2>
            </div>
        ","null","html-button-response","73","157861","0.0-26.0-1.0","apogl3rm6b","Thu 11/20 7:00pm","[""https://raw.githubusercontent.com/annapusok731/lookit-stimuli-template/master/test_stimuli/bridget_bridget1.jpg"",""https://raw.githubusercontent.com/annapusok731/lookit-stimuli-template/master/test_stimuli/bridget_alexis1.jpg""]","","","","","","main_viewing","19","","","","","https://raw.githubusercontent.com/annapusok731/composite_face_effect_studies/main/CFE_Adult/aligned/tina_alexis.jpg","https://raw.githubusercontent.com/annapusok731/composite_face_effect_studies/main/CFE_Adult/aligned/tina_tina.jpg","","","","","","","","","","","","","","","","","","","","","","","","","","","","","","","","","","","","","","","","","","","","","","","","","","","","","","","","","","","","","","","","","","","","","","","","",""
"1943","
                        <div style=""text-align: center;"">
                            <p style=""color: #666; font-size: 20px; margin-top: 10px;"">Trial 19 of 96</p>
                            <h2 class=""trial-question"">Are the top parts of the faces the same or different?</h2>
                        </div>
                    ","0","html-button-response","74","159805","0.0-26.0-2.0","apogl3rm6b","Thu 11/20 7:00pm","[""https://raw.githubusercontent.com/annapusok731/lookit-stimuli-template/master/test_stimuli/bridget_bridget1.jpg"",""https://raw.githubusercontent.com/annapusok731/lookit-stimuli-template/master/test_stimuli/bridget_alexis1.jpg""]","","","","","","main","19","same","same","true","1943","https://raw.githubusercontent.com/annapusok731/composite_face_effect_studies/main/CFE_Adult/aligned/tina_alexis.jpg","https://raw.githubusercontent.com/annapusok731/composite_face_effect_studies/main/CFE_Adult/aligned/tina_tina.jpg","same_aligned","","","","","","","","","","","","","","","","","","","","","","","","","","","","","","","","","","","","","","","","","","","","","","","","","","","","","","","","","","","","","","","","","","","","","","","",""
"null","<div class=""fixation-cross"">+</div>","null","html-keyboard-response","75","161007","0.0-27.0-0.0","apogl3rm6b","Thu 11/20 7:00pm","[""https://raw.githubusercontent.com/annapusok731/lookit-stimuli-template/master/test_stimuli/bridget_bridget1.jpg"",""https://raw.githubusercontent.com/annapusok731/lookit-stimuli-template/master/test_stimuli/bridget_alexis1.jpg""]","","","","","","","","","","","","","","","","","","","","","","","","","","","","","","","","","","","","","","","","","","","","","","","","","","","","","","","","","","","","","","","","","","","","","","","","","","","","","","","","","","","","","",""
"null","
            <div style=""text-align: center;"">
                <p style=""color: #666; font-size: 20px; margin-top: 10px; "">Trial 20 of 96</p>
                <div class=""face-images"">
                    <img src=""https://raw.githubusercontent.com/annapusok731/composite_face_effect_studies/main/CFE_Adult/aligned/walker_walker.jpg"" alt=""Face 1"">
                    <img src=""https://raw.githubusercontent.com/annapusok731/composite_face_effect_studies/main/CFE_Adult/aligned/walker_charles.jpg"" alt=""Face 2"">
                </div>
                <h2 class=""trial-question"">Are the top parts of the faces the same or different?</h2>
            </div>
        ","null","html-button-response","76","162009","0.0-27.0-1.0","apogl3rm6b","Thu 11/20 7:00pm","[""https://raw.githubusercontent.com/annapusok731/lookit-stimuli-template/master/test_stimuli/bridget_bridget1.jpg"",""https://raw.githubusercontent.com/annapusok731/lookit-stimuli-template/master/test_stimuli/bridget_alexis1.jpg""]","","","","","","main_viewing","20","","","","","https://raw.githubusercontent.com/annapusok731/composite_face_effect_studies/main/CFE_Adult/aligned/walker_walker.jpg","https://raw.githubusercontent.com/annapusok731/composite_face_effect_studies/main/CFE_Adult/aligned/walker_charles.jpg","","","","","","","","","","","","","","","","","","","","","","","","","","","","","","","","","","","","","","","","","","","","","","","","","","","","","","","","","","","","","","","","","","","","","","","","",""
"996","
                        <div style=""text-align: center;"">
                            <p style=""color: #666; font-size: 20px; margin-top: 10px;"">Trial 20 of 96</p>
                            <h2 class=""trial-question"">Are the top parts of the faces the same or different?</h2>
                        </div>
                    ","1","html-button-response","77","163006","0.0-27.0-2.0","apogl3rm6b","Thu 11/20 7:00pm","[""https://raw.githubusercontent.com/annapusok731/lookit-stimuli-template/master/test_stimuli/bridget_bridget1.jpg"",""https://raw.githubusercontent.com/annapusok731/lookit-stimuli-template/master/test_stimuli/bridget_alexis1.jpg""]","","","","","","main","20","same","different","false","996","https://raw.githubusercontent.com/annapusok731/composite_face_effect_studies/main/CFE_Adult/aligned/walker_walker.jpg","https://raw.githubusercontent.com/annapusok731/composite_face_effect_studies/main/CFE_Adult/aligned/walker_charles.jpg","same_aligned","","","","","","","","","","","","","","","","","","","","","","","","","","","","","","","","","","","","","","","","","","","","","","","","","","","","","","","","","","","","","","","","","","","","","","","",""
"null","<div class=""fixation-cross"">+</div>","null","html-keyboard-response","78","164209","0.0-28.0-0.0","apogl3rm6b","Thu 11/20 7:00pm","[""https://raw.githubusercontent.com/annapusok731/lookit-stimuli-template/master/test_stimuli/bridget_bridget1.jpg"",""https://raw.githubusercontent.com/annapusok731/lookit-stimuli-template/master/test_stimuli/bridget_alexis1.jpg""]","","","","","","","","","","","","","","","","","","","","","","","","","","","","","","","","","","","","","","","","","","","","","","","","","","","","","","","","","","","","","","","","","","","","","","","","","","","","","","","","","","","","","",""
"null","
            <div style=""text-align: center;"">
                <p style=""color: #666; font-size: 20px; margin-top: 10px; "">Trial 21 of 96</p>
                <div class=""face-images"">
                    <img src=""https://raw.githubusercontent.com/annapusok731/composite_face_effect_studies/main/CFE_Adult/aligned/mimi_kelly.jpg"" alt=""Face 1"">
                    <img src=""https://raw.githubusercontent.com/annapusok731/composite_face_effect_studies/main/CFE_Adult/aligned/kelly_mimi.jpg"" alt=""Face 2"">
                </div>
                <h2 class=""trial-question"">Are the top parts of the faces the same or different?</h2>
            </div>
        ","null","html-button-response","79","165211","0.0-28.0-1.0","apogl3rm6b","Thu 11/20 7:00pm","[""https://raw.githubusercontent.com/annapusok731/lookit-stimuli-template/master/test_stimuli/bridget_bridget1.jpg"",""https://raw.githubusercontent.com/annapusok731/lookit-stimuli-template/master/test_stimuli/bridget_alexis1.jpg""]","","","","","","main_viewing","21","","","","","https://raw.githubusercontent.com/annapusok731/composite_face_effect_studies/main/CFE_Adult/aligned/mimi_kelly.jpg","https://raw.githubusercontent.com/annapusok731/composite_face_effect_studies/main/CFE_Adult/aligned/kelly_mimi.jpg","","","","","","","","","","","","","","","","","","","","","","","","","","","","","","","","","","","","","","","","","","","","","","","","","","","","","","","","","","","","","","","","","","","","","","","","",""
"1176","
                        <div style=""text-align: center;"">
                            <p style=""color: #666; font-size: 20px; margin-top: 10px;"">Trial 21 of 96</p>
                            <h2 class=""trial-question"">Are the top parts of the faces the same or different?</h2>
                        </div>
                    ","1","html-button-response","80","166388","0.0-28.0-2.0","apogl3rm6b","Thu 11/20 7:00pm","[""https://raw.githubusercontent.com/annapusok731/lookit-stimuli-template/master/test_stimuli/bridget_bridget1.jpg"",""https://raw.githubusercontent.com/annapusok731/lookit-stimuli-template/master/test_stimuli/bridget_alexis1.jpg""]","","","","","","main","21","different","different","true","1176","https://raw.githubusercontent.com/annapusok731/composite_face_effect_studies/main/CFE_Adult/aligned/mimi_kelly.jpg","https://raw.githubusercontent.com/annapusok731/composite_face_effect_studies/main/CFE_Adult/aligned/kelly_mimi.jpg","diff_align","","","","","","","","","","","","","","","","","","","","","","","","","","","","","","","","","","","","","","","","","","","","","","","","","","","","","","","","","","","","","","","","","","","","","","","",""
"null","<div class=""fixation-cross"">+</div>","null","html-keyboard-response","81","167590","0.0-29.0-0.0","apogl3rm6b","Thu 11/20 7:00pm","[""https://raw.githubusercontent.com/annapusok731/lookit-stimuli-template/master/test_stimuli/bridget_bridget1.jpg"",""https://raw.githubusercontent.com/annapusok731/lookit-stimuli-template/master/test_stimuli/bridget_alexis1.jpg""]","","","","","","","","","","","","","","","","","","","","","","","","","","","","","","","","","","","","","","","","","","","","","","","","","","","","","","","","","","","","","","","","","","","","","","","","","","","","","","","","","","","","","",""
"null","
            <div style=""text-align: center;"">
                <p style=""color: #666; font-size: 20px; margin-top: 10px; "">Trial 22 of 96</p>
                <div class=""face-images"">
                    <img src=""https://raw.githubusercontent.com/annapusok731/composite_face_effect_studies/main/CFE_Adult/misaligned/hector_gable.jpg"" alt=""Face 1"">
                    <img src=""https://raw.githubusercontent.com/annapusok731/composite_face_effect_studies/main/CFE_Adult/misaligned/hector_hector.jpg"" alt=""Face 2"">
                </div>
                <h2 class=""trial-question"">Are the top parts of the faces the same or different?</h2>
            </div>
        ","null","html-button-response","82","168592","0.0-29.0-1.0","apogl3rm6b","Thu 11/20 7:00pm","[""https://raw.githubusercontent.com/annapusok731/lookit-stimuli-template/master/test_stimuli/bridget_bridget1.jpg"",""https://raw.githubusercontent.com/annapusok731/lookit-stimuli-template/master/test_stimuli/bridget_alexis1.jpg""]","","","","","","main_viewing","22","","","","","https://raw.githubusercontent.com/annapusok731/composite_face_effect_studies/main/CFE_Adult/misaligned/hector_gable.jpg","https://raw.githubusercontent.com/annapusok731/composite_face_effect_studies/main/CFE_Adult/misaligned/hector_hector.jpg","","","","","","","","","","","","","","","","","","","","","","","","","","","","","","","","","","","","","","","","","","","","","","","","","","","","","","","","","","","","","","","","","","","","","","","","",""
"1129","
                        <div style=""text-align: center;"">
                            <p style=""color: #666; font-size: 20px; margin-top: 10px;"">Trial 22 of 96</p>
                            <h2 class=""trial-question"">Are the top parts of the faces the same or different?</h2>
                        </div>
                    ","0","html-button-response","83","169722","0.0-29.0-2.0","apogl3rm6b","Thu 11/20 7:00pm","[""https://raw.githubusercontent.com/annapusok731/lookit-stimuli-template/master/test_stimuli/bridget_bridget1.jpg"",""https://raw.githubusercontent.com/annapusok731/lookit-stimuli-template/master/test_stimuli/bridget_alexis1.jpg""]","","","","","","main","22","same","same","true","1129","https://raw.githubusercontent.com/annapusok731/composite_face_effect_studies/main/CFE_Adult/misaligned/hector_gable.jpg","https://raw.githubusercontent.com/annapusok731/composite_face_effect_studies/main/CFE_Adult/misaligned/hector_hector.jpg","same_misaligned","","","","","","","","","","","","","","","","","","","","","","","","","","","","","","","","","","","","","","","","","","","","","","","","","","","","","","","","","","","","","","","","","","","","","","","",""
"null","<div class=""fixation-cross"">+</div>","null","html-keyboard-response","84","170924","0.0-30.0-0.0","apogl3rm6b","Thu 11/20 7:00pm","[""https://raw.githubusercontent.com/annapusok731/lookit-stimuli-template/master/test_stimuli/bridget_bridget1.jpg"",""https://raw.githubusercontent.com/annapusok731/lookit-stimuli-template/master/test_stimuli/bridget_alexis1.jpg""]","","","","","","","","","","","","","","","","","","","","","","","","","","","","","","","","","","","","","","","","","","","","","","","","","","","","","","","","","","","","","","","","","","","","","","","","","","","","","","","","","","","","","",""
"null","
            <div style=""text-align: center;"">
                <p style=""color: #666; font-size: 20px; margin-top: 10px; "">Trial 23 of 96</p>
                <div class=""face-images"">
                    <img src=""https://raw.githubusercontent.com/annapusok731/composite_face_effect_studies/main/CFE_Adult/misaligned/gabrielle_gabrielle.jpg"" alt=""Face 1"">
                    <img src=""https://raw.githubusercontent.com/annapusok731/composite_face_effect_studies/main/CFE_Adult/misaligned/gabrielle_sydney.jpg"" alt=""Face 2"">
                </div>
                <h2 class=""trial-question"">Are the top parts of the faces the same or different?</h2>
            </div>
        ","null","html-button-response","85","171926","0.0-30.0-1.0","apogl3rm6b","Thu 11/20 7:00pm","[""https://raw.githubusercontent.com/annapusok731/lookit-stimuli-template/master/test_stimuli/bridget_bridget1.jpg"",""https://raw.githubusercontent.com/annapusok731/lookit-stimuli-template/master/test_stimuli/bridget_alexis1.jpg""]","","","","","","main_viewing","23","","","","","https://raw.githubusercontent.com/annapusok731/composite_face_effect_studies/main/CFE_Adult/misaligned/gabrielle_gabrielle.jpg","https://raw.githubusercontent.com/annapusok731/composite_face_effect_studies/main/CFE_Adult/misaligned/gabrielle_sydney.jpg","","","","","","","","","","","","","","","","","","","","","","","","","","","","","","","","","","","","","","","","","","","","","","","","","","","","","","","","","","","","","","","","","","","","","","","","",""
"1095","
                        <div style=""text-align: center;"">
                            <p style=""color: #666; font-size: 20px; margin-top: 10px;"">Trial 23 of 96</p>
                            <h2 class=""trial-question"">Are the top parts of the faces the same or different?</h2>
                        </div>
                    ","0","html-button-response","86","173022","0.0-30.0-2.0","apogl3rm6b","Thu 11/20 7:00pm","[""https://raw.githubusercontent.com/annapusok731/lookit-stimuli-template/master/test_stimuli/bridget_bridget1.jpg"",""https://raw.githubusercontent.com/annapusok731/lookit-stimuli-template/master/test_stimuli/bridget_alexis1.jpg""]","","","","","","main","23","same","same","true","1095","https://raw.githubusercontent.com/annapusok731/composite_face_effect_studies/main/CFE_Adult/misaligned/gabrielle_gabrielle.jpg","https://raw.githubusercontent.com/annapusok731/composite_face_effect_studies/main/CFE_Adult/misaligned/gabrielle_sydney.jpg","same_misaligned","","","","","","","","","","","","","","","","","","","","","","","","","","","","","","","","","","","","","","","","","","","","","","","","","","","","","","","","","","","","","","","","","","","","","","","",""
"null","<div class=""fixation-cross"">+</div>","null","html-keyboard-response","87","174224","0.0-31.0-0.0","apogl3rm6b","Thu 11/20 7:00pm","[""https://raw.githubusercontent.com/annapusok731/lookit-stimuli-template/master/test_stimuli/bridget_bridget1.jpg"",""https://raw.githubusercontent.com/annapusok731/lookit-stimuli-template/master/test_stimuli/bridget_alexis1.jpg""]","","","","","","","","","","","","","","","","","","","","","","","","","","","","","","","","","","","","","","","","","","","","","","","","","","","","","","","","","","","","","","","","","","","","","","","","","","","","","","","","","","","","","",""
"null","
            <div style=""text-align: center;"">
                <p style=""color: #666; font-size: 20px; margin-top: 10px; "">Trial 24 of 96</p>
                <div class=""face-images"">
                    <img src=""https://raw.githubusercontent.com/annapusok731/composite_face_effect_studies/main/CFE_Adult/misaligned/tammy_tammy.jpg"" alt=""Face 1"">
                    <img src=""https://raw.githubusercontent.com/annapusok731/composite_face_effect_studies/main/CFE_Adult/misaligned/tammy_daisy.jpg"" alt=""Face 2"">
                </div>
                <h2 class=""trial-question"">Are the top parts of the faces the same or different?</h2>
            </div>
        ","null","html-button-response","88","175226","0.0-31.0-1.0","apogl3rm6b","Thu 11/20 7:00pm","[""https://raw.githubusercontent.com/annapusok731/lookit-stimuli-template/master/test_stimuli/bridget_bridget1.jpg"",""https://raw.githubusercontent.com/annapusok731/lookit-stimuli-template/master/test_stimuli/bridget_alexis1.jpg""]","","","","","","main_viewing","24","","","","","https://raw.githubusercontent.com/annapusok731/composite_face_effect_studies/main/CFE_Adult/misaligned/tammy_tammy.jpg","https://raw.githubusercontent.com/annapusok731/composite_face_effect_studies/main/CFE_Adult/misaligned/tammy_daisy.jpg","","","","","","","","","","","","","","","","","","","","","","","","","","","","","","","","","","","","","","","","","","","","","","","","","","","","","","","","","","","","","","","","","","","","","","","","",""
"680","
                        <div style=""text-align: center;"">
                            <p style=""color: #666; font-size: 20px; margin-top: 10px;"">Trial 24 of 96</p>
                            <h2 class=""trial-question"">Are the top parts of the faces the same or different?</h2>
                        </div>
