"rt","stimulus","response","trial_type","trial_index","time_elapsed","internal_node_id","subject_id","timeslot","current_practice_images","success","timeout","failed_images","failed_audio","failed_video","task","trial_number","correct_answer","response_label","correct","response_time_ms","image_left","image_right","condition","question_order","Q1","Q2","Q3","Q4","Q5","Q6","Q7","Q8","Q9","Q10","Q11","Q12","Q13","Q14","Q15","Q16","Q17","Q18","Q19","Q20","Q21","Q22","Q23","Q24","Q25","Q26","Q27","Q28","Q29","Q30","Q31","Q32","Q33","Q34","Q35","Q36","Q37","Q38","Q39","Q40","Q41","Q42","Q43","Q44","Q45","Q46","Q47","Q48","Q49","Q50","Q51","Q52","Q53","Q54","Q55","Q56","Q57","Q58","Q59","Q60","Q61","Q62","Q63","Q64","Q65","srs_total_score","age","race_ethnicity","sex","education","living_status"
"65924","
            <h1>Research Study Consent Form</h1>
            <div class=""consent-content"">
                <p>You are being invited to participate in a research study titled ""Reproducibility of Psychological Science and Instruction."" This study is being done by Dr. Bria Long from UC San Diego and associated graduate students in Experimental Methods course. You were selected to participate in this study because you are an adult in the U.S. and have been a represented population in previous psychology studies.</p>
                
                <p>The purpose of this study is to better understand how well previously published studies in the psychological field replicate online and with different populations. Your participation in this research should last approximately 5-30 minutes. If you agree to take part in this study, you may be asked to view a set of stimuli, including pictures, sounds, written text, or videos and then giving some responses via key-presses, verbally, or with paper-and-pencil. We may also observe your choices or preferences among an array of stimuli. These stimuli will be taken directly from or closely adapted from studies that already exist in the published psychological literature. Stimuli will include, e.g., pictures of objects and human faces, audio and video clips, short text passages, etc. None of the stimuli will be disturbing, threatening, or offensive. The online and in-person experiments described in this protocol will take no more than 30 minutes. An example game you might play would be to click on an image on the screen that matches a word you hear being said out loud. Your total expected time commitment for this study is between 5-30 minutes, and is specified in the study description.</p>
                
                <p>Your participation in this study is completely voluntary and you can withdraw at any time. Choosing not to participate or withdrawing will result in no penalty or loss of benefits to which you are entitled. You are free to skip any question that you choose.</p>
                
                <p>We will not be asking for any personally identifying information, and we will handle responses as confidentially as possible. Your SONA or Prolific IDs will never be tied to your responses on this survey. However, we cannot guarantee the confidentiality of information transmitted over the Internet. To minimize this risk, data containing anything that might be personally identifiable (e.g. Prolific IDs or IP addresses) will be encrypted on transfer and storage and will only be accessible to qualified lab personnel. We will be keeping data collected as part of this experiment indefinitely. This anonymized data (containing neither Prolific IDs nor IP addresses) may be shared with the scientific community or with other participants to be used as stimuli in future studies.</p>
                
                <p>If you have questions about this project or if you have a research-related problem, you may contact the researcher(s), Dr. Bria Long, <a href=""mailto:brlong@ucsd.edu"">brlong@ucsd.edu</a>. If you have any questions concerning your rights as a research subject, you may contact the UC San Diego Office of IRB Administration at <a href=""mailto:irb@ucsd.edu"">irb@ucsd.edu</a> or 858-246-4777.</p>
                
                <p><strong>By participating in this research you are indicating that you are at least 18 years old, have read this consent form, and agree to participate in this research study. Please keep this consent form for your records.</strong></p>
            </div>
        ","0","html-button-response","0","65929","0.0-0.0","b5l4mon4oh","Thursday 11/20, at 8:00 PM","[""https://raw.githubusercontent.com/annapusok731/lookit-stimuli-template/master/test_stimuli/bridget_bridget1.jpg"",""https://raw.githubusercontent.com/annapusok731/lookit-stimuli-template/master/test_stimuli/bridget_alexis1.jpg""]","","","","","","","","","","","","","","","","","","","","","","","","","","","","","","","","","","","","","","","","","","","","","","","","","","","","","","","","","","","","","","","","","","","","","","","","","","","","","","","","","","","","","",""
"38314","
            <h1>Timeslot Information</h1>
            <div class=""demographics-form"">
                <div class=""form-group"">
                    <label for=""timeslot"">What is the date/time you signed up for? We will need this information to verify your session and issue your credit within 3 days of participation.</label>
                    <input type=""text"" id=""timeslot"" name=""timeslot"" placeholder=""e.g., Monday 11/18 at 2:00 PM"" required>
                </div>
            </div>
        ","0","html-button-response","1","104245","0.0-1.0","b5l4mon4oh","Thursday 11/20, at 8:00 PM","[""https://raw.githubusercontent.com/annapusok731/lookit-stimuli-template/master/test_stimuli/bridget_bridget1.jpg"",""https://raw.githubusercontent.com/annapusok731/lookit-stimuli-template/master/test_stimuli/bridget_alexis1.jpg""]","","","","","","","","","","","","","","","","","","","","","","","","","","","","","","","","","","","","","","","","","","","","","","","","","","","","","","","","","","","","","","","","","","","","","","","","","","","","","","","","","","","","","",""
"66697","
            <h1>Instructions</h1>
            <p>In this task, you will see two pictures of faces side-by-side. They will be visible for a short amount of time.</p>
            <p>You will have to decide whether the top parts of the faces are the same or different.</p>
            <p>To answer, click on either the ""SAME"" or ""DIFFERENT"" buttons below the images.</p>
            <p>Try to answer as quickly as you can.</p>
            <p>There will be two practice trials. Once you click on ""Next"" after the second practice, the experiment will automatically start.</p>
            <p>After the experiment, we ask you to fill out two surveys.</p>
        ","0","html-button-response","2","170945","0.0-2.0","b5l4mon4oh","Thursday 11/20, at 8:00 PM","[""https://raw.githubusercontent.com/annapusok731/lookit-stimuli-template/master/test_stimuli/bridget_bridget1.jpg"",""https://raw.githubusercontent.com/annapusok731/lookit-stimuli-template/master/test_stimuli/bridget_alexis1.jpg""]","","","","","","","","","","","","","","","","","","","","","","","","","","","","","","","","","","","","","","","","","","","","","","","","","","","","","","","","","","","","","","","","","","","","","","","","","","","","","","","","","","","","","",""
"","","","preload","3","171431","0.0-3.0","b5l4mon4oh","Thursday 11/20, at 8:00 PM","[""https://raw.githubusercontent.com/annapusok731/lookit-stimuli-template/master/test_stimuli/bridget_bridget1.jpg"",""https://raw.githubusercontent.com/annapusok731/lookit-stimuli-template/master/test_stimuli/bridget_alexis1.jpg""]","true","false","[]","[]","[]","","","","","","","","","","","","","","","","","","","","","","","","","","","","","","","","","","","","","","","","","","","","","","","","","","","","","","","","","","","","","","","","","","","","","","","","","","","","","","","","",""
"1430","","","fullscreen","4","173864","0.0-4.0","b5l4mon4oh","Thursday 11/20, at 8:00 PM","[""https://raw.githubusercontent.com/annapusok731/lookit-stimuli-template/master/test_stimuli/bridget_bridget1.jpg"",""https://raw.githubusercontent.com/annapusok731/lookit-stimuli-template/master/test_stimuli/bridget_alexis1.jpg""]","true","","","","","","","","","","","","","","","","","","","","","","","","","","","","","","","","","","","","","","","","","","","","","","","","","","","","","","","","","","","","","","","","","","","","","","","","","","","","","","","","","","","","",""
"null","<div class=""fixation-cross"">+</div>","null","html-keyboard-response","5","175066","0.0-5.0-0.0","b5l4mon4oh","Thursday 11/20, at 8:00 PM","[""https://raw.githubusercontent.com/annapusok731/lookit-stimuli-template/master/test_stimuli/bridget_bridget1.jpg"",""https://raw.githubusercontent.com/annapusok731/lookit-stimuli-template/master/test_stimuli/bridget_alexis1.jpg""]","","","","","","","","","","","","","","","","","","","","","","","","","","","","","","","","","","","","","","","","","","","","","","","","","","","","","","","","","","","","","","","","","","","","","","","","","","","","","","","","","","","","","",""
"null","
            <div style=""text-align: center;"">
                <p style=""color: #666; font-size: 20px; margin-top: 10px; "">Practice Trial 1 of 2</p>
                <div class=""face-images"">
                    <img src=""https://raw.githubusercontent.com/annapusok731/lookit-stimuli-template/master/test_stimuli/arnold_william1.jpg"" alt=""Face 1"">
                    <img src=""https://raw.githubusercontent.com/annapusok731/lookit-stimuli-template/master/test_stimuli/william_arnold1.jpg"" alt=""Face 2"">
                </div>
                <h2 class=""trial-question"">Are the top parts of the faces the same or different?</h2>
            </div>
        ","null","html-button-response","6","176069","0.0-5.0-1.0","b5l4mon4oh","Thursday 11/20, at 8:00 PM","[""https://raw.githubusercontent.com/annapusok731/lookit-stimuli-template/master/test_stimuli/bridget_bridget1.jpg"",""https://raw.githubusercontent.com/annapusok731/lookit-stimuli-template/master/test_stimuli/bridget_alexis1.jpg""]","","","","","","practice_viewing","1","","","","","","","","","","","","","","","","","","","","","","","","","","","","","","","","","","","","","","","","","","","","","","","","","","","","","","","","","","","","","","","","","","","","","","","","","","","","","","",""
"2524","<h2 class=""trial-question"">Are the top parts of the faces the same or different?</h2>","1","html-button-response","7","178595","0.0-5.0-2.0","b5l4mon4oh","Thursday 11/20, at 8:00 PM","[""https://raw.githubusercontent.com/annapusok731/lookit-stimuli-template/master/test_stimuli/bridget_bridget1.jpg"",""https://raw.githubusercontent.com/annapusok731/lookit-stimuli-template/master/test_stimuli/bridget_alexis1.jpg""]","","","","","","practice","1","different","different","true","2524","","","","","","","","","","","","","","","","","","","","","","","","","","","","","","","","","","","","","","","","","","","","","","","","","","","","","","","","","","","","","","","","","","","","","","","","","","",""
"1148","
                                <h1 class=""feedback-correct"">Great job!</h1>
                                <p style=""font-size: 18px; margin-top: 20px;"">The top parts of the faces are different!</p>
                            ","0","html-button-response","8","179745","0.0-5.0-3.0","b5l4mon4oh","Thursday 11/20, at 8:00 PM","[""https://raw.githubusercontent.com/annapusok731/lookit-stimuli-template/master/test_stimuli/bridget_bridget1.jpg"",""https://raw.githubusercontent.com/annapusok731/lookit-stimuli-template/master/test_stimuli/bridget_alexis1.jpg""]","","","","","","","","","","","","","","","","","","","","","","","","","","","","","","","","","","","","","","","","","","","","","","","","","","","","","","","","","","","","","","","","","","","","","","","","","","","","","","","","","","","","","",""
"null","<div class=""fixation-cross"">+</div>","null","html-keyboard-response","9","180947","0.0-6.0-0.0","b5l4mon4oh","Thursday 11/20, at 8:00 PM","[""https://raw.githubusercontent.com/annapusok731/lookit-stimuli-template/master/test_stimuli/bridget_bridget1.jpg"",""https://raw.githubusercontent.com/annapusok731/lookit-stimuli-template/master/test_stimuli/bridget_alexis1.jpg""]","","","","","","","","","","","","","","","","","","","","","","","","","","","","","","","","","","","","","","","","","","","","","","","","","","","","","","","","","","","","","","","","","","","","","","","","","","","","","","","","","","","","","",""
"null","
            <div style=""text-align: center;"">
                <p style=""color: #666; font-size: 20px; margin-top: 10px; "">Practice Trial 2 of 2</p>
                <div class=""face-images"">
                    <img src=""https://raw.githubusercontent.com/annapusok731/lookit-stimuli-template/master/test_stimuli/bridget_bridget1.jpg"" alt=""Face 1"">
                    <img src=""https://raw.githubusercontent.com/annapusok731/lookit-stimuli-template/master/test_stimuli/bridget_alexis1.jpg"" alt=""Face 2"">
                </div>
                <h2 class=""trial-question"">Are the top parts of the faces the same or different?</h2>
            </div>
        ","null","html-button-response","10","181950","0.0-6.0-1.0","b5l4mon4oh","Thursday 11/20, at 8:00 PM","[""https://raw.githubusercontent.com/annapusok731/lookit-stimuli-template/master/test_stimuli/bridget_bridget1.jpg"",""https://raw.githubusercontent.com/annapusok731/lookit-stimuli-template/master/test_stimuli/bridget_alexis1.jpg""]","","","","","","practice_viewing","2","","","","","","","","","","","","","","","","","","","","","","","","","","","","","","","","","","","","","","","","","","","","","","","","","","","","","","","","","","","","","","","","","","","","","","","","","","","","","","",""
"811","<h2 class=""trial-question"">Are the top parts of the faces the same or different?</h2>","0","html-button-response","11","182762","0.0-6.0-2.0","b5l4mon4oh","Thursday 11/20, at 8:00 PM","[""https://raw.githubusercontent.com/annapusok731/lookit-stimuli-template/master/test_stimuli/bridget_bridget1.jpg"",""https://raw.githubusercontent.com/annapusok731/lookit-stimuli-template/master/test_stimuli/bridget_alexis1.jpg""]","","","","","","practice","2","same","same","true","811","","","","","","","","","","","","","","","","","","","","","","","","","","","","","","","","","","","","","","","","","","","","","","","","","","","","","","","","","","","","","","","","","","","","","","","","","","",""
"717","
                                <h1 class=""feedback-correct"">Great job!</h1>
                                <p style=""font-size: 18px; margin-top: 20px;"">The top parts of the faces are same!</p>
                            ","0","html-button-response","12","183480","0.0-6.0-3.0","b5l4mon4oh","Thursday 11/20, at 8:00 PM","[""https://raw.githubusercontent.com/annapusok731/lookit-stimuli-template/master/test_stimuli/bridget_bridget1.jpg"",""https://raw.githubusercontent.com/annapusok731/lookit-stimuli-template/master/test_stimuli/bridget_alexis1.jpg""]","","","","","","","","","","","","","","","","","","","","","","","","","","","","","","","","","","","","","","","","","","","","","","","","","","","","","","","","","","","","","","","","","","","","","","","","","","","","","","","","","","","","","",""
"980","
            <h1 class=""feedback-correct"">Practice Complete!</h1>
            <p style=""font-size: 18px; margin-top: 20px;"">Great job! Now starting the experiment.</p>
        ","0","html-button-response","13","184462","0.0-7.0","b5l4mon4oh","Thursday 11/20, at 8:00 PM","[""https://raw.githubusercontent.com/annapusok731/lookit-stimuli-template/master/test_stimuli/bridget_bridget1.jpg"",""https://raw.githubusercontent.com/annapusok731/lookit-stimuli-template/master/test_stimuli/bridget_alexis1.jpg""]","","","","","","","","","","","","","","","","","","","","","","","","","","","","","","","","","","","","","","","","","","","","","","","","","","","","","","","","","","","","","","","","","","","","","","","","","","","","","","","","","","","","","",""
"null","<div class=""fixation-cross"">+</div>","null","html-keyboard-response","14","185664","0.0-8.0-0.0","b5l4mon4oh","Thursday 11/20, at 8:00 PM","[""https://raw.githubusercontent.com/annapusok731/lookit-stimuli-template/master/test_stimuli/bridget_bridget1.jpg"",""https://raw.githubusercontent.com/annapusok731/lookit-stimuli-template/master/test_stimuli/bridget_alexis1.jpg""]","","","","","","","","","","","","","","","","","","","","","","","","","","","","","","","","","","","","","","","","","","","","","","","","","","","","","","","","","","","","","","","","","","","","","","","","","","","","","","","","","","","","","",""
"null","
            <div style=""text-align: center;"">
                <p style=""color: #666; font-size: 20px; margin-top: 10px; "">Trial 1 of 96</p>
                <div class=""face-images"">
                    <img src=""https://raw.githubusercontent.com/annapusok731/composite_face_effect_studies/main/CFE_Adult/misaligned/jason_mike.jpg"" alt=""Face 1"">
                    <img src=""https://raw.githubusercontent.com/annapusok731/composite_face_effect_studies/main/CFE_Adult/misaligned/mike_jason.jpg"" alt=""Face 2"">
                </div>
                <h2 class=""trial-question"">Are the top parts of the faces the same or different?</h2>
            </div>
        ","null","html-button-response","15","186666","0.0-8.0-1.0","b5l4mon4oh","Thursday 11/20, at 8:00 PM","[""https://raw.githubusercontent.com/annapusok731/lookit-stimuli-template/master/test_stimuli/bridget_bridget1.jpg"",""https://raw.githubusercontent.com/annapusok731/lookit-stimuli-template/master/test_stimuli/bridget_alexis1.jpg""]","","","","","","main_viewing","1","","","","","https://raw.githubusercontent.com/annapusok731/composite_face_effect_studies/main/CFE_Adult/misaligned/jason_mike.jpg","https://raw.githubusercontent.com/annapusok731/composite_face_effect_studies/main/CFE_Adult/misaligned/mike_jason.jpg","","","","","","","","","","","","","","","","","","","","","","","","","","","","","","","","","","","","","","","","","","","","","","","","","","","","","","","","","","","","","","","","","","","","","","","","",""
"1096","
                        <div style=""text-align: center;"">
                            <p style=""color: #666; font-size: 20px; margin-top: 10px;"">Trial 1 of 96</p>
                            <h2 class=""trial-question"">Are the top parts of the faces the same or different?</h2>
                        </div>
                    ","1","html-button-response","16","187763","0.0-8.0-2.0","b5l4mon4oh","Thursday 11/20, at 8:00 PM","[""https://raw.githubusercontent.com/annapusok731/lookit-stimuli-template/master/test_stimuli/bridget_bridget1.jpg"",""https://raw.githubusercontent.com/annapusok731/lookit-stimuli-template/master/test_stimuli/bridget_alexis1.jpg""]","","","","","","main","1","different","different","true","1096","https://raw.githubusercontent.com/annapusok731/composite_face_effect_studies/main/CFE_Adult/misaligned/jason_mike.jpg","https://raw.githubusercontent.com/annapusok731/composite_face_effect_studies/main/CFE_Adult/misaligned/mike_jason.jpg","diff_misalign","","","","","","","","","","","","","","","","","","","","","","","","","","","","","","","","","","","","","","","","","","","","","","","","","","","","","","","","","","","","","","","","","","","","","","","",""
"null","<div class=""fixation-cross"">+</div>","null","html-keyboard-response","17","188966","0.0-9.0-0.0","b5l4mon4oh","Thursday 11/20, at 8:00 PM","[""https://raw.githubusercontent.com/annapusok731/lookit-stimuli-template/master/test_stimuli/bridget_bridget1.jpg"",""https://raw.githubusercontent.com/annapusok731/lookit-stimuli-template/master/test_stimuli/bridget_alexis1.jpg""]","","","","","","","","","","","","","","","","","","","","","","","","","","","","","","","","","","","","","","","","","","","","","","","","","","","","","","","","","","","","","","","","","","","","","","","","","","","","","","","","","","","","","",""
"null","
            <div style=""text-align: center;"">
                <p style=""color: #666; font-size: 20px; margin-top: 10px; "">Trial 2 of 96</p>
                <div class=""face-images"">
                    <img src=""https://raw.githubusercontent.com/annapusok731/composite_face_effect_studies/main/CFE_Adult/misaligned/noah_gavin.jpg"" alt=""Face 1"">
                    <img src=""https://raw.githubusercontent.com/annapusok731/composite_face_effect_studies/main/CFE_Adult/misaligned/gavin_noah.jpg"" alt=""Face 2"">
                </div>
                <h2 class=""trial-question"">Are the top parts of the faces the same or different?</h2>
            </div>
        ","null","html-button-response","18","189968","0.0-9.0-1.0","b5l4mon4oh","Thursday 11/20, at 8:00 PM","[""https://raw.githubusercontent.com/annapusok731/lookit-stimuli-template/master/test_stimuli/bridget_bridget1.jpg"",""https://raw.githubusercontent.com/annapusok731/lookit-stimuli-template/master/test_stimuli/bridget_alexis1.jpg""]","","","","","","main_viewing","2","","","","","https://raw.githubusercontent.com/annapusok731/composite_face_effect_studies/main/CFE_Adult/misaligned/noah_gavin.jpg","https://raw.githubusercontent.com/annapusok731/composite_face_effect_studies/main/CFE_Adult/misaligned/gavin_noah.jpg","","","","","","","","","","","","","","","","","","","","","","","","","","","","","","","","","","","","","","","","","","","","","","","","","","","","","","","","","","","","","","","","","","","","","","","","",""
"1460","
                        <div style=""text-align: center;"">
                            <p style=""color: #666; font-size: 20px; margin-top: 10px;"">Trial 2 of 96</p>
                            <h2 class=""trial-question"">Are the top parts of the faces the same or different?</h2>
                        </div>
                    ","1","html-button-response","19","191430","0.0-9.0-2.0","b5l4mon4oh","Thursday 11/20, at 8:00 PM","[""https://raw.githubusercontent.com/annapusok731/lookit-stimuli-template/master/test_stimuli/bridget_bridget1.jpg"",""https://raw.githubusercontent.com/annapusok731/lookit-stimuli-template/master/test_stimuli/bridget_alexis1.jpg""]","","","","","","main","2","different","different","true","1460","https://raw.githubusercontent.com/annapusok731/composite_face_effect_studies/main/CFE_Adult/misaligned/noah_gavin.jpg","https://raw.githubusercontent.com/annapusok731/composite_face_effect_studies/main/CFE_Adult/misaligned/gavin_noah.jpg","diff_misalign","","","","","","","","","","","","","","","","","","","","","","","","","","","","","","","","","","","","","","","","","","","","","","","","","","","","","","","","","","","","","","","","","","","","","","","",""
"null","<div class=""fixation-cross"">+</div>","null","html-keyboard-response","20","192633","0.0-10.0-0.0","b5l4mon4oh","Thursday 11/20, at 8:00 PM","[""https://raw.githubusercontent.com/annapusok731/lookit-stimuli-template/master/test_stimuli/bridget_bridget1.jpg"",""https://raw.githubusercontent.com/annapusok731/lookit-stimuli-template/master/test_stimuli/bridget_alexis1.jpg""]","","","","","","","","","","","","","","","","","","","","","","","","","","","","","","","","","","","","","","","","","","","","","","","","","","","","","","","","","","","","","","","","","","","","","","","","","","","","","","","","","","","","","",""
"null","
            <div style=""text-align: center;"">
                <p style=""color: #666; font-size: 20px; margin-top: 10px; "">Trial 3 of 96</p>
                <div class=""face-images"">
                    <img src=""https://raw.githubusercontent.com/annapusok731/composite_face_effect_studies/main/CFE_Adult/misaligned/lili_lili.jpg"" alt=""Face 1"">
                    <img src=""https://raw.githubusercontent.com/annapusok731/composite_face_effect_studies/main/CFE_Adult/misaligned/lili_emma.jpg"" alt=""Face 2"">
                </div>
                <h2 class=""trial-question"">Are the top parts of the faces the same or different?</h2>
            </div>
        ","null","html-button-response","21","193647","0.0-10.0-1.0","b5l4mon4oh","Thursday 11/20, at 8:00 PM","[""https://raw.githubusercontent.com/annapusok731/lookit-stimuli-template/master/test_stimuli/bridget_bridget1.jpg"",""https://raw.githubusercontent.com/annapusok731/lookit-stimuli-template/master/test_stimuli/bridget_alexis1.jpg""]","","","","","","main_viewing","3","","","","","https://raw.githubusercontent.com/annapusok731/composite_face_effect_studies/main/CFE_Adult/misaligned/lili_lili.jpg","https://raw.githubusercontent.com/annapusok731/composite_face_effect_studies/main/CFE_Adult/misaligned/lili_emma.jpg","","","","","","","","","","","","","","","","","","","","","","","","","","","","","","","","","","","","","","","","","","","","","","","","","","","","","","","","","","","","","","","","","","","","","","","","",""
"665","
                        <div style=""text-align: center;"">
                            <p style=""color: #666; font-size: 20px; margin-top: 10px;"">Trial 3 of 96</p>
                            <h2 class=""trial-question"">Are the top parts of the faces the same or different?</h2>
                        </div>
                    ","0","html-button-response","22","194312","0.0-10.0-2.0","b5l4mon4oh","Thursday 11/20, at 8:00 PM","[""https://raw.githubusercontent.com/annapusok731/lookit-stimuli-template/master/test_stimuli/bridget_bridget1.jpg"",""https://raw.githubusercontent.com/annapusok731/lookit-stimuli-template/master/test_stimuli/bridget_alexis1.jpg""]","","","","","","main","3","same","same","true","665","https://raw.githubusercontent.com/annapusok731/composite_face_effect_studies/main/CFE_Adult/misaligned/lili_lili.jpg","https://raw.githubusercontent.com/annapusok731/composite_face_effect_studies/main/CFE_Adult/misaligned/lili_emma.jpg","same_misaligned","","","","","","","","","","","","","","","","","","","","","","","","","","","","","","","","","","","","","","","","","","","","","","","","","","","","","","","","","","","","","","","","","","","","","","","",""
"null","<div class=""fixation-cross"">+</div>","null","html-keyboard-response","23","195514","0.0-11.0-0.0","b5l4mon4oh","Thursday 11/20, at 8:00 PM","[""https://raw.githubusercontent.com/annapusok731/lookit-stimuli-template/master/test_stimuli/bridget_bridget1.jpg"",""https://raw.githubusercontent.com/annapusok731/lookit-stimuli-template/master/test_stimuli/bridget_alexis1.jpg""]","","","","","","","","","","","","","","","","","","","","","","","","","","","","","","","","","","","","","","","","","","","","","","","","","","","","","","","","","","","","","","","","","","","","","","","","","","","","","","","","","","","","","",""
"null","
            <div style=""text-align: center;"">
                <p style=""color: #666; font-size: 20px; margin-top: 10px; "">Trial 4 of 96</p>
                <div class=""face-images"">
                    <img src=""https://raw.githubusercontent.com/annapusok731/composite_face_effect_studies/main/CFE_Adult/misaligned/coop_cam.jpg"" alt=""Face 1"">
                    <img src=""https://raw.githubusercontent.com/annapusok731/composite_face_effect_studies/main/CFE_Adult/misaligned/coop_coop.jpg"" alt=""Face 2"">
                </div>
                <h2 class=""trial-question"">Are the top parts of the faces the same or different?</h2>
            </div>
        ","null","html-button-response","24","196517","0.0-11.0-1.0","b5l4mon4oh","Thursday 11/20, at 8:00 PM","[""https://raw.githubusercontent.com/annapusok731/lookit-stimuli-template/master/test_stimuli/bridget_bridget1.jpg"",""https://raw.githubusercontent.com/annapusok731/lookit-stimuli-template/master/test_stimuli/bridget_alexis1.jpg""]","","","","","","main_viewing","4","","","","","https://raw.githubusercontent.com/annapusok731/composite_face_effect_studies/main/CFE_Adult/misaligned/coop_cam.jpg","https://raw.githubusercontent.com/annapusok731/composite_face_effect_studies/main/CFE_Adult/misaligned/coop_coop.jpg","","","","","","","","","","","","","","","","","","","","","","","","","","","","","","","","","","","","","","","","","","","","","","","","","","","","","","","","","","","","","","","","","","","","","","","","",""
"527","
                        <div style=""text-align: center;"">
                            <p style=""color: #666; font-size: 20px; margin-top: 10px;"">Trial 4 of 96</p>
                            <h2 class=""trial-question"">Are the top parts of the faces the same or different?</h2>
                        </div>
                    ","0","html-button-response","25","197045","0.0-11.0-2.0","b5l4mon4oh","Thursday 11/20, at 8:00 PM","[""https://raw.githubusercontent.com/annapusok731/lookit-stimuli-template/master/test_stimuli/bridget_bridget1.jpg"",""https://raw.githubusercontent.com/annapusok731/lookit-stimuli-template/master/test_stimuli/bridget_alexis1.jpg""]","","","","","","main","4","same","same","true","527","https://raw.githubusercontent.com/annapusok731/composite_face_effect_studies/main/CFE_Adult/misaligned/coop_cam.jpg","https://raw.githubusercontent.com/annapusok731/composite_face_effect_studies/main/CFE_Adult/misaligned/coop_coop.jpg","same_misaligned","","","","","","","","","","","","","","","","","","","","","","","","","","","","","","","","","","","","","","","","","","","","","","","","","","","","","","","","","","","","","","","","","","","","","","","",""
"null","<div class=""fixation-cross"">+</div>","null","html-keyboard-response","26","198247","0.0-12.0-0.0","b5l4mon4oh","Thursday 11/20, at 8:00 PM","[""https://raw.githubusercontent.com/annapusok731/lookit-stimuli-template/master/test_stimuli/bridget_bridget1.jpg"",""https://raw.githubusercontent.com/annapusok731/lookit-stimuli-template/master/test_stimuli/bridget_alexis1.jpg""]","","","","","","","","","","","","","","","","","","","","","","","","","","","","","","","","","","","","","","","","","","","","","","","","","","","","","","","","","","","","","","","","","","","","","","","","","","","","","","","","","","","","","",""
"null","
            <div style=""text-align: center;"">
                <p style=""color: #666; font-size: 20px; margin-top: 10px; "">Trial 5 of 96</p>
                <div class=""face-images"">
                    <img src=""https://raw.githubusercontent.com/annapusok731/composite_face_effect_studies/main/CFE_Adult/misaligned/bridget_brenda.jpg"" alt=""Face 1"">
                    <img src=""https://raw.githubusercontent.com/annapusok731/composite_face_effect_studies/main/CFE_Adult/misaligned/brenda_bridget.jpg"" alt=""Face 2"">
                </div>
                <h2 class=""trial-question"">Are the top parts of the faces the same or different?</h2>
            </div>
        ","null","html-button-response","27","199250","0.0-12.0-1.0","b5l4mon4oh","Thursday 11/20, at 8:00 PM","[""https://raw.githubusercontent.com/annapusok731/lookit-stimuli-template/master/test_stimuli/bridget_bridget1.jpg"",""https://raw.githubusercontent.com/annapusok731/lookit-stimuli-template/master/test_stimuli/bridget_alexis1.jpg""]","","","","","","main_viewing","5","","","","","https://raw.githubusercontent.com/annapusok731/composite_face_effect_studies/main/CFE_Adult/misaligned/bridget_brenda.jpg","https://raw.githubusercontent.com/annapusok731/composite_face_effect_studies/main/CFE_Adult/misaligned/brenda_bridget.jpg","","","","","","","","","","","","","","","","","","","","","","","","","","","","","","","","","","","","","","","","","","","","","","","","","","","","","","","","","","","","","","","","","","","","","","","","",""
"678","
                        <div style=""text-align: center;"">
                            <p style=""color: #666; font-size: 20px; margin-top: 10px;"">Trial 5 of 96</p>
                            <h2 class=""trial-question"">Are the top parts of the faces the same or different?</h2>
                        </div>
                    ","1","html-button-response","28","199929","0.0-12.0-2.0","b5l4mon4oh","Thursday 11/20, at 8:00 PM","[""https://raw.githubusercontent.com/annapusok731/lookit-stimuli-template/master/test_stimuli/bridget_bridget1.jpg"",""https://raw.githubusercontent.com/annapusok731/lookit-stimuli-template/master/test_stimuli/bridget_alexis1.jpg""]","","","","","","main","5","different","different","true","678","https://raw.githubusercontent.com/annapusok731/composite_face_effect_studies/main/CFE_Adult/misaligned/bridget_brenda.jpg","https://raw.githubusercontent.com/annapusok731/composite_face_effect_studies/main/CFE_Adult/misaligned/brenda_bridget.jpg","diff_misalign","","","","","","","","","","","","","","","","","","","","","","","","","","","","","","","","","","","","","","","","","","","","","","","","","","","","","","","","","","","","","","","","","","","","","","","",""
"null","<div class=""fixation-cross"">+</div>","null","html-keyboard-response","29","201132","0.0-13.0-0.0","b5l4mon4oh","Thursday 11/20, at 8:00 PM","[""https://raw.githubusercontent.com/annapusok731/lookit-stimuli-template/master/test_stimuli/bridget_bridget1.jpg"",""https://raw.githubusercontent.com/annapusok731/lookit-stimuli-template/master/test_stimuli/bridget_alexis1.jpg""]","","","","","","","","","","","","","","","","","","","","","","","","","","","","","","","","","","","","","","","","","","","","","","","","","","","","","","","","","","","","","","","","","","","","","","","","","","","","","","","","","","","","","",""
"null","
            <div style=""text-align: center;"">
                <p style=""color: #666; font-size: 20px; margin-top: 10px; "">Trial 6 of 96</p>
                <div class=""face-images"">
                    <img src=""https://raw.githubusercontent.com/annapusok731/composite_face_effect_studies/main/CFE_Adult/misaligned/cody_zack.jpg"" alt=""Face 1"">
                    <img src=""https://raw.githubusercontent.com/annapusok731/composite_face_effect_studies/main/CFE_Adult/misaligned/cody_cody.jpg"" alt=""Face 2"">
                </div>
                <h2 class=""trial-question"">Are the top parts of the faces the same or different?</h2>
            </div>
        ","null","html-button-response","30","202134","0.0-13.0-1.0","b5l4mon4oh","Thursday 11/20, at 8:00 PM","[""https://raw.githubusercontent.com/annapusok731/lookit-stimuli-template/master/test_stimuli/bridget_bridget1.jpg"",""https://raw.githubusercontent.com/annapusok731/lookit-stimuli-template/master/test_stimuli/bridget_alexis1.jpg""]","","","","","","main_viewing","6","","","","","https://raw.githubusercontent.com/annapusok731/composite_face_effect_studies/main/CFE_Adult/misaligned/cody_zack.jpg","https://raw.githubusercontent.com/annapusok731/composite_face_effect_studies/main/CFE_Adult/misaligned/cody_cody.jpg","","","","","","","","","","","","","","","","","","","","","","","","","","","","","","","","","","","","","","","","","","","","","","","","","","","","","","","","","","","","","","","","","","","","","","","","",""
"878","
                        <div style=""text-align: center;"">
                            <p style=""color: #666; font-size: 20px; margin-top: 10px;"">Trial 6 of 96</p>
                            <h2 class=""trial-question"">Are the top parts of the faces the same or different?</h2>
                        </div>
                    ","0","html-button-response","31","203014","0.0-13.0-2.0","b5l4mon4oh","Thursday 11/20, at 8:00 PM","[""https://raw.githubusercontent.com/annapusok731/lookit-stimuli-template/master/test_stimuli/bridget_bridget1.jpg"",""https://raw.githubusercontent.com/annapusok731/lookit-stimuli-template/master/test_stimuli/bridget_alexis1.jpg""]","","","","","","main","6","same","same","true","878","https://raw.githubusercontent.com/annapusok731/composite_face_effect_studies/main/CFE_Adult/misaligned/cody_zack.jpg","https://raw.githubusercontent.com/annapusok731/composite_face_effect_studies/main/CFE_Adult/misaligned/cody_cody.jpg","same_misaligned","","","","","","","","","","","","","","","","","","","","","","","","","","","","","","","","","","","","","","","","","","","","","","","","","","","","","","","","","","","","","","","","","","","","","","","",""
"null","<div class=""fixation-cross"">+</div>","null","html-keyboard-response","32","204215","0.0-14.0-0.0","b5l4mon4oh","Thursday 11/20, at 8:00 PM","[""https://raw.githubusercontent.com/annapusok731/lookit-stimuli-template/master/test_stimuli/bridget_bridget1.jpg"",""https://raw.githubusercontent.com/annapusok731/lookit-stimuli-template/master/test_stimuli/bridget_alexis1.jpg""]","","","","","","","","","","","","","","","","","","","","","","","","","","","","","","","","","","","","","","","","","","","","","","","","","","","","","","","","","","","","","","","","","","","","","","","","","","","","","","","","","","","","","",""
"null","
            <div style=""text-align: center;"">
                <p style=""color: #666; font-size: 20px; margin-top: 10px; "">Trial 7 of 96</p>
                <div class=""face-images"">
                    <img src=""https://raw.githubusercontent.com/annapusok731/composite_face_effect_studies/main/CFE_Adult/misaligned/skylar_everly.jpg"" alt=""Face 1"">
                    <img src=""https://raw.githubusercontent.com/annapusok731/composite_face_effect_studies/main/CFE_Adult/misaligned/skylar_skylar.jpg"" alt=""Face 2"">
                </div>
                <h2 class=""trial-question"">Are the top parts of the faces the same or different?</h2>
            </div>
        ","null","html-button-response","33","205217","0.0-14.0-1.0","b5l4mon4oh","Thursday 11/20, at 8:00 PM","[""https://raw.githubusercontent.com/annapusok731/lookit-stimuli-template/master/test_stimuli/bridget_bridget1.jpg"",""https://raw.githubusercontent.com/annapusok731/lookit-stimuli-template/master/test_stimuli/bridget_alexis1.jpg""]","","","","","","main_viewing","7","","","","","https://raw.githubusercontent.com/annapusok731/composite_face_effect_studies/main/CFE_Adult/misaligned/skylar_everly.jpg","https://raw.githubusercontent.com/annapusok731/composite_face_effect_studies/main/CFE_Adult/misaligned/skylar_skylar.jpg","","","","","","","","","","","","","","","","","","","","","","","","","","","","","","","","","","","","","","","","","","","","","","","","","","","","","","","","","","","","","","","","","","","","","","","","",""
"745","
                        <div style=""text-align: center;"">
                            <p style=""color: #666; font-size: 20px; margin-top: 10px;"">Trial 7 of 96</p>
                            <h2 class=""trial-question"">Are the top parts of the faces the same or different?</h2>
                        </div>
                    ","0","html-button-response","34","205963","0.0-14.0-2.0","b5l4mon4oh","Thursday 11/20, at 8:00 PM","[""https://raw.githubusercontent.com/annapusok731/lookit-stimuli-template/master/test_stimuli/bridget_bridget1.jpg"",""https://raw.githubusercontent.com/annapusok731/lookit-stimuli-template/master/test_stimuli/bridget_alexis1.jpg""]","","","","","","main","7","same","same","true","745","https://raw.githubusercontent.com/annapusok731/composite_face_effect_studies/main/CFE_Adult/misaligned/skylar_everly.jpg","https://raw.githubusercontent.com/annapusok731/composite_face_effect_studies/main/CFE_Adult/misaligned/skylar_skylar.jpg","same_misaligned","","","","","","","","","","","","","","","","","","","","","","","","","","","","","","","","","","","","","","","","","","","","","","","","","","","","","","","","","","","","","","","","","","","","","","","",""
"null","<div class=""fixation-cross"">+</div>","null","html-keyboard-response","35","207165","0.0-15.0-0.0","b5l4mon4oh","Thursday 11/20, at 8:00 PM","[""https://raw.githubusercontent.com/annapusok731/lookit-stimuli-template/master/test_stimuli/bridget_bridget1.jpg"",""https://raw.githubusercontent.com/annapusok731/lookit-stimuli-template/master/test_stimuli/bridget_alexis1.jpg""]","","","","","","","","","","","","","","","","","","","","","","","","","","","","","","","","","","","","","","","","","","","","","","","","","","","","","","","","","","","","","","","","","","","","","","","","","","","","","","","","","","","","","",""
"null","
            <div style=""text-align: center;"">
                <p style=""color: #666; font-size: 20px; margin-top: 10px; "">Trial 8 of 96</p>
                <div class=""face-images"">
                    <img src=""https://raw.githubusercontent.com/annapusok731/composite_face_effect_studies/main/CFE_Adult/aligned/mary_tess.jpg"" alt=""Face 1"">
                    <img src=""https://raw.githubusercontent.com/annapusok731/composite_face_effect_studies/main/CFE_Adult/aligned/tess_mary.jpg"" alt=""Face 2"">
                </div>
                <h2 class=""trial-question"">Are the top parts of the faces the same or different?</h2>
            </div>
        ","null","html-button-response","36","208168","0.0-15.0-1.0","b5l4mon4oh","Thursday 11/20, at 8:00 PM","[""https://raw.githubusercontent.com/annapusok731/lookit-stimuli-template/master/test_stimuli/bridget_bridget1.jpg"",""https://raw.githubusercontent.com/annapusok731/lookit-stimuli-template/master/test_stimuli/bridget_alexis1.jpg""]","","","","","","main_viewing","8","","","","","https://raw.githubusercontent.com/annapusok731/composite_face_effect_studies/main/CFE_Adult/aligned/mary_tess.jpg","https://raw.githubusercontent.com/annapusok731/composite_face_effect_studies/main/CFE_Adult/aligned/tess_mary.jpg","","","","","","","","","","","","","","","","","","","","","","","","","","","","","","","","","","","","","","","","","","","","","","","","","","","","","","","","","","","","","","","","","","","","","","","","",""
"677","
                        <div style=""text-align: center;"">
                            <p style=""color: #666; font-size: 20px; margin-top: 10px;"">Trial 8 of 96</p>
                            <h2 class=""trial-question"">Are the top parts of the faces the same or different?</h2>
                        </div>
                    ","1","html-button-response","37","208847","0.0-15.0-2.0","b5l4mon4oh","Thursday 11/20, at 8:00 PM","[""https://raw.githubusercontent.com/annapusok731/lookit-stimuli-template/master/test_stimuli/bridget_bridget1.jpg"",""https://raw.githubusercontent.com/annapusok731/lookit-stimuli-template/master/test_stimuli/bridget_alexis1.jpg""]","","","","","","main","8","different","different","true","677","https://raw.githubusercontent.com/annapusok731/composite_face_effect_studies/main/CFE_Adult/aligned/mary_tess.jpg","https://raw.githubusercontent.com/annapusok731/composite_face_effect_studies/main/CFE_Adult/aligned/tess_mary.jpg","diff_align","","","","","","","","","","","","","","","","","","","","","","","","","","","","","","","","","","","","","","","","","","","","","","","","","","","","","","","","","","","","","","","","","","","","","","","",""
"null","<div class=""fixation-cross"">+</div>","null","html-keyboard-response","38","210049","0.0-16.0-0.0","b5l4mon4oh","Thursday 11/20, at 8:00 PM","[""https://raw.githubusercontent.com/annapusok731/lookit-stimuli-template/master/test_stimuli/bridget_bridget1.jpg"",""https://raw.githubusercontent.com/annapusok731/lookit-stimuli-template/master/test_stimuli/bridget_alexis1.jpg""]","","","","","","","","","","","","","","","","","","","","","","","","","","","","","","","","","","","","","","","","","","","","","","","","","","","","","","","","","","","","","","","","","","","","","","","","","","","","","","","","","","","","","",""
"null","
            <div style=""text-align: center;"">
                <p style=""color: #666; font-size: 20px; margin-top: 10px; "">Trial 9 of 96</p>
                <div class=""face-images"">
                    <img src=""https://raw.githubusercontent.com/annapusok731/composite_face_effect_studies/main/CFE_Adult/misaligned/bob_andy.jpg"" alt=""Face 1"">
                    <img src=""https://raw.githubusercontent.com/annapusok731/composite_face_effect_studies/main/CFE_Adult/misaligned/andy_bob.jpg"" alt=""Face 2"">
                </div>
                <h2 class=""trial-question"">Are the top parts of the faces the same or different?</h2>
            </div>
        ","null","html-button-response","39","211051","0.0-16.0-1.0","b5l4mon4oh","Thursday 11/20, at 8:00 PM","[""https://raw.githubusercontent.com/annapusok731/lookit-stimuli-template/master/test_stimuli/bridget_bridget1.jpg"",""https://raw.githubusercontent.com/annapusok731/lookit-stimuli-template/master/test_stimuli/bridget_alexis1.jpg""]","","","","","","main_viewing","9","","","","","https://raw.githubusercontent.com/annapusok731/composite_face_effect_studies/main/CFE_Adult/misaligned/bob_andy.jpg","https://raw.githubusercontent.com/annapusok731/composite_face_effect_studies/main/CFE_Adult/misaligned/andy_bob.jpg","","","","","","","","","","","","","","","","","","","","","","","","","","","","","","","","","","","","","","","","","","","","","","","","","","","","","","","","","","","","","","","","","","","","","","","","",""
"994","
                        <div style=""text-align: center;"">
                            <p style=""color: #666; font-size: 20px; margin-top: 10px;"">Trial 9 of 96</p>
                            <h2 class=""trial-question"">Are the top parts of the faces the same or different?</h2>
                        </div>
                    ","1","html-button-response","40","212047","0.0-16.0-2.0","b5l4mon4oh","Thursday 11/20, at 8:00 PM","[""https://raw.githubusercontent.com/annapusok731/lookit-stimuli-template/master/test_stimuli/bridget_bridget1.jpg"",""https://raw.githubusercontent.com/annapusok731/lookit-stimuli-template/master/test_stimuli/bridget_alexis1.jpg""]","","","","","","main","9","different","different","true","994","https://raw.githubusercontent.com/annapusok731/composite_face_effect_studies/main/CFE_Adult/misaligned/bob_andy.jpg","https://raw.githubusercontent.com/annapusok731/composite_face_effect_studies/main/CFE_Adult/misaligned/andy_bob.jpg","diff_misalign","","","","","","","","","","","","","","","","","","","","","","","","","","","","","","","","","","","","","","","","","","","","","","","","","","","","","","","","","","","","","","","","","","","","","","","",""
"null","<div class=""fixation-cross"">+</div>","null","html-keyboard-response","41","213249","0.0-17.0-0.0","b5l4mon4oh","Thursday 11/20, at 8:00 PM","[""https://raw.githubusercontent.com/annapusok731/lookit-stimuli-template/master/test_stimuli/bridget_bridget1.jpg"",""https://raw.githubusercontent.com/annapusok731/lookit-stimuli-template/master/test_stimuli/bridget_alexis1.jpg""]","","","","","","","","","","","","","","","","","","","","","","","","","","","","","","","","","","","","","","","","","","","","","","","","","","","","","","","","","","","","","","","","","","","","","","","","","","","","","","","","","","","","","",""
"null","
            <div style=""text-align: center;"">
                <p style=""color: #666; font-size: 20px; margin-top: 10px; "">Trial 10 of 96</p>
                <div class=""face-images"">
                    <img src=""https://raw.githubusercontent.com/annapusok731/composite_face_effect_studies/main/CFE_Adult/aligned/wesley_wesley.jpg"" alt=""Face 1"">
                    <img src=""https://raw.githubusercontent.com/annapusok731/composite_face_effect_studies/main/CFE_Adult/aligned/wesley_wendall.jpg"" alt=""Face 2"">
                </div>
                <h2 class=""trial-question"">Are the top parts of the faces the same or different?</h2>
            </div>
        ","null","html-button-response","42","214252","0.0-17.0-1.0","b5l4mon4oh","Thursday 11/20, at 8:00 PM","[""https://raw.githubusercontent.com/annapusok731/lookit-stimuli-template/master/test_stimuli/bridget_bridget1.jpg"",""https://raw.githubusercontent.com/annapusok731/lookit-stimuli-template/master/test_stimuli/bridget_alexis1.jpg""]","","","","","","main_viewing","10","","","","","https://raw.githubusercontent.com/annapusok731/composite_face_effect_studies/main/CFE_Adult/aligned/wesley_wesley.jpg","https://raw.githubusercontent.com/annapusok731/composite_face_effect_studies/main/CFE_Adult/aligned/wesley_wendall.jpg","","","","","","","","","","","","","","","","","","","","","","","","","","","","","","","","","","","","","","","","","","","","","","","","","","","","","","","","","","","","","","","","","","","","","","","","",""
"1326","
                        <div style=""text-align: center;"">
                            <p style=""color: #666; font-size: 20px; margin-top: 10px;"">Trial 10 of 96</p>
                            <h2 class=""trial-question"">Are the top parts of the faces the same or different?</h2>
                        </div>
                    ","0","html-button-response","43","215579","0.0-17.0-2.0","b5l4mon4oh","Thursday 11/20, at 8:00 PM","[""https://raw.githubusercontent.com/annapusok731/lookit-stimuli-template/master/test_stimuli/bridget_bridget1.jpg"",""https://raw.githubusercontent.com/annapusok731/lookit-stimuli-template/master/test_stimuli/bridget_alexis1.jpg""]","","","","","","main","10","same","same","true","1326","https://raw.githubusercontent.com/annapusok731/composite_face_effect_studies/main/CFE_Adult/aligned/wesley_wesley.jpg","https://raw.githubusercontent.com/annapusok731/composite_face_effect_studies/main/CFE_Adult/aligned/wesley_wendall.jpg","same_aligned","","","","","","","","","","","","","","","","","","","","","","","","","","","","","","","","","","","","","","","","","","","","","","","","","","","","","","","","","","","","","","","","","","","","","","","",""
"null","<div class=""fixation-cross"">+</div>","null","html-keyboard-response","44","216781","0.0-18.0-0.0","b5l4mon4oh","Thursday 11/20, at 8:00 PM","[""https://raw.githubusercontent.com/annapusok731/lookit-stimuli-template/master/test_stimuli/bridget_bridget1.jpg"",""https://raw.githubusercontent.com/annapusok731/lookit-stimuli-template/master/test_stimuli/bridget_alexis1.jpg""]","","","","","","","","","","","","","","","","","","","","","","","","","","","","","","","","","","","","","","","","","","","","","","","","","","","","","","","","","","","","","","","","","","","","","","","","","","","","","","","","","","","","","",""
"null","
            <div style=""text-align: center;"">
                <p style=""color: #666; font-size: 20px; margin-top: 10px; "">Trial 11 of 96</p>
                <div class=""face-images"">
                    <img src=""https://raw.githubusercontent.com/annapusok731/composite_face_effect_studies/main/CFE_Adult/aligned/rory_gloria.jpg"" alt=""Face 1"">
                    <img src=""https://raw.githubusercontent.com/annapusok731/composite_face_effect_studies/main/CFE_Adult/aligned/gloria_rory.jpg"" alt=""Face 2"">
                </div>
                <h2 class=""trial-question"">Are the top parts of the faces the same or different?</h2>
            </div>
        ","null","html-button-response","45","217784","0.0-18.0-1.0","b5l4mon4oh","Thursday 11/20, at 8:00 PM","[""https://raw.githubusercontent.com/annapusok731/lookit-stimuli-template/master/test_stimuli/bridget_bridget1.jpg"",""https://raw.githubusercontent.com/annapusok731/lookit-stimuli-template/master/test_stimuli/bridget_alexis1.jpg""]","","","","","","main_viewing","11","","","","","https://raw.githubusercontent.com/annapusok731/composite_face_effect_studies/main/CFE_Adult/aligned/rory_gloria.jpg","https://raw.githubusercontent.com/annapusok731/composite_face_effect_studies/main/CFE_Adult/aligned/gloria_rory.jpg","","","","","","","","","","","","","","","","","","","","","","","","","","","","","","","","","","","","","","","","","","","","","","","","","","","","","","","","","","","","","","","","","","","","","","","","",""
"978","
                        <div style=""text-align: center;"">
                            <p style=""color: #666; font-size: 20px; margin-top: 10px;"">Trial 11 of 96</p>
                            <h2 class=""trial-question"">Are the top parts of the faces the same or different?</h2>
                        </div>
                    ","1","html-button-response","46","218763","0.0-18.0-2.0","b5l4mon4oh","Thursday 11/20, at 8:00 PM","[""https://raw.githubusercontent.com/annapusok731/lookit-stimuli-template/master/test_stimuli/bridget_bridget1.jpg"",""https://raw.githubusercontent.com/annapusok731/lookit-stimuli-template/master/test_stimuli/bridget_alexis1.jpg""]","","","","","","main","11","different","different","true","978","https://raw.githubusercontent.com/annapusok731/composite_face_effect_studies/main/CFE_Adult/aligned/rory_gloria.jpg","https://raw.githubusercontent.com/annapusok731/composite_face_effect_studies/main/CFE_Adult/aligned/gloria_rory.jpg","diff_align","","","","","","","","","","","","","","","","","","","","","","","","","","","","","","","","","","","","","","","","","","","","","","","","","","","","","","","","","","","","","","","","","","","","","","","",""
"null","<div class=""fixation-cross"">+</div>","null","html-keyboard-response","47","219964","0.0-19.0-0.0","b5l4mon4oh","Thursday 11/20, at 8:00 PM","[""https://raw.githubusercontent.com/annapusok731/lookit-stimuli-template/master/test_stimuli/bridget_bridget1.jpg"",""https://raw.githubusercontent.com/annapusok731/lookit-stimuli-template/master/test_stimuli/bridget_alexis1.jpg""]","","","","","","","","","","","","","","","","","","","","","","","","","","","","","","","","","","","","","","","","","","","","","","","","","","","","","","","","","","","","","","","","","","","","","","","","","","","","","","","","","","","","","",""
"null","
            <div style=""text-align: center;"">
                <p style=""color: #666; font-size: 20px; margin-top: 10px; "">Trial 12 of 96</p>
                <div class=""face-images"">
                    <img src=""https://raw.githubusercontent.com/annapusok731/composite_face_effect_studies/main/CFE_Adult/misaligned/dan_will.jpg"" alt=""Face 1"">
                    <img src=""https://raw.githubusercontent.com/annapusok731/composite_face_effect_studies/main/CFE_Adult/misaligned/will_dan.jpg"" alt=""Face 2"">
                </div>
                <h2 class=""trial-question"">Are the top parts of the faces the same or different?</h2>
            </div>
        ","null","html-button-response","48","220967","0.0-19.0-1.0","b5l4mon4oh","Thursday 11/20, at 8:00 PM","[""https://raw.githubusercontent.com/annapusok731/lookit-stimuli-template/master/test_stimuli/bridget_bridget1.jpg"",""https://raw.githubusercontent.com/annapusok731/lookit-stimuli-template/master/test_stimuli/bridget_alexis1.jpg""]","","","","","","main_viewing","12","","","","","https://raw.githubusercontent.com/annapusok731/composite_face_effect_studies/main/CFE_Adult/misaligned/dan_will.jpg","https://raw.githubusercontent.com/annapusok731/composite_face_effect_studies/main/CFE_Adult/misaligned/will_dan.jpg","","","","","","","","","","","","","","","","","","","","","","","","","","","","","","","","","","","","","","","","","","","","","","","","","","","","","","","","","","","","","","","","","","","","","","","","",""
"529","
                        <div style=""text-align: center;"">
                            <p style=""color: #666; font-size: 20px; margin-top: 10px;"">Trial 12 of 96</p>
                            <h2 class=""trial-question"">Are the top parts of the faces the same or different?</h2>
                        </div>
                    ","1","html-button-response","49","221497","0.0-19.0-2.0","b5l4mon4oh","Thursday 11/20, at 8:00 PM","[""https://raw.githubusercontent.com/annapusok731/lookit-stimuli-template/master/test_stimuli/bridget_bridget1.jpg"",""https://raw.githubusercontent.com/annapusok731/lookit-stimuli-template/master/test_stimuli/bridget_alexis1.jpg""]","","","","","","main","12","different","different","true","529","https://raw.githubusercontent.com/annapusok731/composite_face_effect_studies/main/CFE_Adult/misaligned/dan_will.jpg","https://raw.githubusercontent.com/annapusok731/composite_face_effect_studies/main/CFE_Adult/misaligned/will_dan.jpg","diff_misalign","","","","","","","","","","","","","","","","","","","","","","","","","","","","","","","","","","","","","","","","","","","","","","","","","","","","","","","","","","","","","","","","","","","","","","","",""
"null","<div class=""fixation-cross"">+</div>","null","html-keyboard-response","50","222699","0.0-20.0-0.0","b5l4mon4oh","Thursday 11/20, at 8:00 PM","[""https://raw.githubusercontent.com/annapusok731/lookit-stimuli-template/master/test_stimuli/bridget_bridget1.jpg"",""https://raw.githubusercontent.com/annapusok731/lookit-stimuli-template/master/test_stimuli/bridget_alexis1.jpg""]","","","","","","","","","","","","","","","","","","","","","","","","","","","","","","","","","","","","","","","","","","","","","","","","","","","","","","","","","","","","","","","","","","","","","","","","","","","","","","","","","","","","","",""
"null","
            <div style=""text-align: center;"">
                <p style=""color: #666; font-size: 20px; margin-top: 10px; "">Trial 13 of 96</p>
                <div class=""face-images"">
                    <img src=""https://raw.githubusercontent.com/annapusok731/composite_face_effect_studies/main/CFE_Adult/aligned/gill_frank.jpg"" alt=""Face 1"">
                    <img src=""https://raw.githubusercontent.com/annapusok731/composite_face_effect_studies/main/CFE_Adult/aligned/gill_gill.jpg"" alt=""Face 2"">
                </div>
                <h2 class=""trial-question"">Are the top parts of the faces the same or different?</h2>
            </div>
        ","null","html-button-response","51","223701","0.0-20.0-1.0","b5l4mon4oh","Thursday 11/20, at 8:00 PM","[""https://raw.githubusercontent.com/annapusok731/lookit-stimuli-template/master/test_stimuli/bridget_bridget1.jpg"",""https://raw.githubusercontent.com/annapusok731/lookit-stimuli-template/master/test_stimuli/bridget_alexis1.jpg""]","","","","","","main_viewing","13","","","","","https://raw.githubusercontent.com/annapusok731/composite_face_effect_studies/main/CFE_Adult/aligned/gill_frank.jpg","https://raw.githubusercontent.com/annapusok731/composite_face_effect_studies/main/CFE_Adult/aligned/gill_gill.jpg","","","","","","","","","","","","","","","","","","","","","","","","","","","","","","","","","","","","","","","","","","","","","","","","","","","","","","","","","","","","","","","","","","","","","","","","",""
"911","
                        <div style=""text-align: center;"">
                            <p style=""color: #666; font-size: 20px; margin-top: 10px;"">Trial 13 of 96</p>
                            <h2 class=""trial-question"">Are the top parts of the faces the same or different?</h2>
                        </div>
                    ","0","html-button-response","52","224613","0.0-20.0-2.0","b5l4mon4oh","Thursday 11/20, at 8:00 PM","[""https://raw.githubusercontent.com/annapusok731/lookit-stimuli-template/master/test_stimuli/bridget_bridget1.jpg"",""https://raw.githubusercontent.com/annapusok731/lookit-stimuli-template/master/test_stimuli/bridget_alexis1.jpg""]","","","","","","main","13","same","same","true","911","https://raw.githubusercontent.com/annapusok731/composite_face_effect_studies/main/CFE_Adult/aligned/gill_frank.jpg","https://raw.githubusercontent.com/annapusok731/composite_face_effect_studies/main/CFE_Adult/aligned/gill_gill.jpg","same_aligned","","","","","","","","","","","","","","","","","","","","","","","","","","","","","","","","","","","","","","","","","","","","","","","","","","","","","","","","","","","","","","","","","","","","","","","",""
"null","<div class=""fixation-cross"">+</div>","null","html-keyboard-response","53","225815","0.0-21.0-0.0","b5l4mon4oh","Thursday 11/20, at 8:00 PM","[""https://raw.githubusercontent.com/annapusok731/lookit-stimuli-template/master/test_stimuli/bridget_bridget1.jpg"",""https://raw.githubusercontent.com/annapusok731/lookit-stimuli-template/master/test_stimuli/bridget_alexis1.jpg""]","","","","","","","","","","","","","","","","","","","","","","","","","","","","","","","","","","","","","","","","","","","","","","","","","","","","","","","","","","","","","","","","","","","","","","","","","","","","","","","","","","","","","",""
"null","
            <div style=""text-align: center;"">
                <p style=""color: #666; font-size: 20px; margin-top: 10px; "">Trial 14 of 96</p>
                <div class=""face-images"">
                    <img src=""https://raw.githubusercontent.com/annapusok731/composite_face_effect_studies/main/CFE_Adult/misaligned/delia_cynthia.jpg"" alt=""Face 1"">
                    <img src=""https://raw.githubusercontent.com/annapusok731/composite_face_effect_studies/main/CFE_Adult/misaligned/cynthia_delia.jpg"" alt=""Face 2"">
                </div>
                <h2 class=""trial-question"">Are the top parts of the faces the same or different?</h2>
            </div>
        ","null","html-button-response","54","226817","0.0-21.0-1.0","b5l4mon4oh","Thursday 11/20, at 8:00 PM","[""https://raw.githubusercontent.com/annapusok731/lookit-stimuli-template/master/test_stimuli/bridget_bridget1.jpg"",""https://raw.githubusercontent.com/annapusok731/lookit-stimuli-template/master/test_stimuli/bridget_alexis1.jpg""]","","","","","","main_viewing","14","","","","","https://raw.githubusercontent.com/annapusok731/composite_face_effect_studies/main/CFE_Adult/misaligned/delia_cynthia.jpg","https://raw.githubusercontent.com/annapusok731/composite_face_effect_studies/main/CFE_Adult/misaligned/cynthia_delia.jpg","","","","","","","","","","","","","","","","","","","","","","","","","","","","","","","","","","","","","","","","","","","","","","","","","","","","","","","","","","","","","","","","","","","","","","","","",""
"578","
                        <div style=""text-align: center;"">
                            <p style=""color: #666; font-size: 20px; margin-top: 10px;"">Trial 14 of 96</p>
                            <h2 class=""trial-question"">Are the top parts of the faces the same or different?</h2>
                        </div>
                    ","1","html-button-response","55","227397","0.0-21.0-2.0","b5l4mon4oh","Thursday 11/20, at 8:00 PM","[""https://raw.githubusercontent.com/annapusok731/lookit-stimuli-template/master/test_stimuli/bridget_bridget1.jpg"",""https://raw.githubusercontent.com/annapusok731/lookit-stimuli-template/master/test_stimuli/bridget_alexis1.jpg""]","","","","","","main","14","different","different","true","578","https://raw.githubusercontent.com/annapusok731/composite_face_effect_studies/main/CFE_Adult/misaligned/delia_cynthia.jpg","https://raw.githubusercontent.com/annapusok731/composite_face_effect_studies/main/CFE_Adult/misaligned/cynthia_delia.jpg","diff_misalign","","","","","","","","","","","","","","","","","","","","","","","","","","","","","","","","","","","","","","","","","","","","","","","","","","","","","","","","","","","","","","","","","","","","","","","",""
"null","<div class=""fixation-cross"">+</div>","null","html-keyboard-response","56","228599","0.0-22.0-0.0","b5l4mon4oh","Thursday 11/20, at 8:00 PM","[""https://raw.githubusercontent.com/annapusok731/lookit-stimuli-template/master/test_stimuli/bridget_bridget1.jpg"",""https://raw.githubusercontent.com/annapusok731/lookit-stimuli-template/master/test_stimuli/bridget_alexis1.jpg""]","","","","","","","","","","","","","","","","","","","","","","","","","","","","","","","","","","","","","","","","","","","","","","","","","","","","","","","","","","","","","","","","","","","","","","","","","","","","","","","","","","","","","",""
"null","
            <div style=""text-align: center;"">
                <p style=""color: #666; font-size: 20px; margin-top: 10px; "">Trial 15 of 96</p>
                <div class=""face-images"">
                    <img src=""https://raw.githubusercontent.com/annapusok731/composite_face_effect_studies/main/CFE_Adult/misaligned/carter_carter.jpg"" alt=""Face 1"">
                    <img src=""https://raw.githubusercontent.com/annapusok731/composite_face_effect_studies/main/CFE_Adult/misaligned/carter_liam.jpg"" alt=""Face 2"">
                </div>
                <h2 class=""trial-question"">Are the top parts of the faces the same or different?</h2>
            </div>
        ","null","html-button-response","57","229602","0.0-22.0-1.0","b5l4mon4oh","Thursday 11/20, at 8:00 PM","[""https://raw.githubusercontent.com/annapusok731/lookit-stimuli-template/master/test_stimuli/bridget_bridget1.jpg"",""https://raw.githubusercontent.com/annapusok731/lookit-stimuli-template/master/test_stimuli/bridget_alexis1.jpg""]","","","","","","main_viewing","15","","","","","https://raw.githubusercontent.com/annapusok731/composite_face_effect_studies/main/CFE_Adult/misaligned/carter_carter.jpg","https://raw.githubusercontent.com/annapusok731/composite_face_effect_studies/main/CFE_Adult/misaligned/carter_liam.jpg","","","","","","","","","","","","","","","","","","","","","","","","","","","","","","","","","","","","","","","","","","","","","","","","","","","","","","","","","","","","","","","","","","","","","","","","",""
"775","
                        <div style=""text-align: center;"">
                            <p style=""color: #666; font-size: 20px; margin-top: 10px;"">Trial 15 of 96</p>
                            <h2 class=""trial-question"">Are the top parts of the faces the same or different?</h2>
                        </div>
                    ","0","html-button-response","58","230379","0.0-22.0-2.0","b5l4mon4oh","Thursday 11/20, at 8:00 PM","[""https://raw.githubusercontent.com/annapusok731/lookit-stimuli-template/master/test_stimuli/bridget_bridget1.jpg"",""https://raw.githubusercontent.com/annapusok731/lookit-stimuli-template/master/test_stimuli/bridget_alexis1.jpg""]","","","","","","main","15","same","same","true","775","https://raw.githubusercontent.com/annapusok731/composite_face_effect_studies/main/CFE_Adult/misaligned/carter_carter.jpg","https://raw.githubusercontent.com/annapusok731/composite_face_effect_studies/main/CFE_Adult/misaligned/carter_liam.jpg","same_misaligned","","","","","","","","","","","","","","","","","","","","","","","","","","","","","","","","","","","","","","","","","","","","","","","","","","","","","","","","","","","","","","","","","","","","","","","",""
"null","<div class=""fixation-cross"">+</div>","null","html-keyboard-response","59","231581","0.0-23.0-0.0","b5l4mon4oh","Thursday 11/20, at 8:00 PM","[""https://raw.githubusercontent.com/annapusok731/lookit-stimuli-template/master/test_stimuli/bridget_bridget1.jpg"",""https://raw.githubusercontent.com/annapusok731/lookit-stimuli-template/master/test_stimuli/bridget_alexis1.jpg""]","","","","","","","","","","","","","","","","","","","","","","","","","","","","","","","","","","","","","","","","","","","","","","","","","","","","","","","","","","","","","","","","","","","","","","","","","","","","","","","","","","","","","",""
"null","
            <div style=""text-align: center;"">
                <p style=""color: #666; font-size: 20px; margin-top: 10px; "">Trial 16 of 96</p>
                <div class=""face-images"">
                    <img src=""https://raw.githubusercontent.com/annapusok731/composite_face_effect_studies/main/CFE_Adult/aligned/ruby_rachel.jpg"" alt=""Face 1"">
                    <img src=""https://raw.githubusercontent.com/annapusok731/composite_face_effect_studies/main/CFE_Adult/aligned/rachel_ruby.jpg"" alt=""Face 2"">
                </div>
                <h2 class=""trial-question"">Are the top parts of the faces the same or different?</h2>
            </div>
        ","null","html-button-response","60","232583","0.0-23.0-1.0","b5l4mon4oh","Thursday 11/20, at 8:00 PM","[""https://raw.githubusercontent.com/annapusok731/lookit-stimuli-template/master/test_stimuli/bridget_bridget1.jpg"",""https://raw.githubusercontent.com/annapusok731/lookit-stimuli-template/master/test_stimuli/bridget_alexis1.jpg""]","","","","","","main_viewing","16","","","","","https://raw.githubusercontent.com/annapusok731/composite_face_effect_studies/main/CFE_Adult/aligned/ruby_rachel.jpg","https://raw.githubusercontent.com/annapusok731/composite_face_effect_studies/main/CFE_Adult/aligned/rachel_ruby.jpg","","","","","","","","","","","","","","","","","","","","","","","","","","","","","","","","","","","","","","","","","","","","","","","","","","","","","","","","","","","","","","","","","","","","","","","","",""
"513","
                        <div style=""text-align: center;"">
                            <p style=""color: #666; font-size: 20px; margin-top: 10px;"">Trial 16 of 96</p>
                            <h2 class=""trial-question"">Are the top parts of the faces the same or different?</h2>
                        </div>
                    ","1","html-button-response","61","233098","0.0-23.0-2.0","b5l4mon4oh","Thursday 11/20, at 8:00 PM","[""https://raw.githubusercontent.com/annapusok731/lookit-stimuli-template/master/test_stimuli/bridget_bridget1.jpg"",""https://raw.githubusercontent.com/annapusok731/lookit-stimuli-template/master/test_stimuli/bridget_alexis1.jpg""]","","","","","","main","16","different","different","true","513","https://raw.githubusercontent.com/annapusok731/composite_face_effect_studies/main/CFE_Adult/aligned/ruby_rachel.jpg","https://raw.githubusercontent.com/annapusok731/composite_face_effect_studies/main/CFE_Adult/aligned/rachel_ruby.jpg","diff_align","","","","","","","","","","","","","","","","","","","","","","","","","","","","","","","","","","","","","","","","","","","","","","","","","","","","","","","","","","","","","","","","","","","","","","","",""
"null","<div class=""fixation-cross"">+</div>","null","html-keyboard-response","62","234300","0.0-24.0-0.0","b5l4mon4oh","Thursday 11/20, at 8:00 PM","[""https://raw.githubusercontent.com/annapusok731/lookit-stimuli-template/master/test_stimuli/bridget_bridget1.jpg"",""https://raw.githubusercontent.com/annapusok731/lookit-stimuli-template/master/test_stimuli/bridget_alexis1.jpg""]","","","","","","","","","","","","","","","","","","","","","","","","","","","","","","","","","","","","","","","","","","","","","","","","","","","","","","","","","","","","","","","","","","","","","","","","","","","","","","","","","","","","","",""
"null","
            <div style=""text-align: center;"">
                <p style=""color: #666; font-size: 20px; margin-top: 10px; "">Trial 17 of 96</p>
                <div class=""face-images"">
                    <img src=""https://raw.githubusercontent.com/annapusok731/composite_face_effect_studies/main/CFE_Adult/aligned/francesca_francesca.jpg"" alt=""Face 1"">
                    <img src=""https://raw.githubusercontent.com/annapusok731/composite_face_effect_studies/main/CFE_Adult/aligned/francesca_astra.jpg"" alt=""Face 2"">
                </div>
                <h2 class=""trial-question"">Are the top parts of the faces the same or different?</h2>
            </div>
        ","null","html-button-response","63","235303","0.0-24.0-1.0","b5l4mon4oh","Thursday 11/20, at 8:00 PM","[""https://raw.githubusercontent.com/annapusok731/lookit-stimuli-template/master/test_stimuli/bridget_bridget1.jpg"",""https://raw.githubusercontent.com/annapusok731/lookit-stimuli-template/master/test_stimuli/bridget_alexis1.jpg""]","","","","","","main_viewing","17","","","","","https://raw.githubusercontent.com/annapusok731/composite_face_effect_studies/main/CFE_Adult/aligned/francesca_francesca.jpg","https://raw.githubusercontent.com/annapusok731/composite_face_effect_studies/main/CFE_Adult/aligned/francesca_astra.jpg","","","","","","","","","","","","","","","","","","","","","","","","","","","","","","","","","","","","","","","","","","","","","","","","","","","","","","","","","","","","","","","","","","","","","","","","",""
"1075","
                        <div style=""text-align: center;"">
                            <p style=""color: #666; font-size: 20px; margin-top: 10px;"">Trial 17 of 96</p>
                            <h2 class=""trial-question"">Are the top parts of the faces the same or different?</h2>
                        </div>
                    ","0","html-button-response","64","236379","0.0-24.0-2.0","b5l4mon4oh","Thursday 11/20, at 8:00 PM","[""https://raw.githubusercontent.com/annapusok731/lookit-stimuli-template/master/test_stimuli/bridget_bridget1.jpg"",""https://raw.githubusercontent.com/annapusok731/lookit-stimuli-template/master/test_stimuli/bridget_alexis1.jpg""]","","","","","","main","17","same","same","true","1075","https://raw.githubusercontent.com/annapusok731/composite_face_effect_studies/main/CFE_Adult/aligned/francesca_francesca.jpg","https://raw.githubusercontent.com/annapusok731/composite_face_effect_studies/main/CFE_Adult/aligned/francesca_astra.jpg","same_aligned","","","","","","","","","","","","","","","","","","","","","","","","","","","","","","","","","","","","","","","","","","","","","","","","","","","","","","","","","","","","","","","","","","","","","","","",""
"null","<div class=""fixation-cross"">+</div>","null","html-keyboard-response","65","237580","0.0-25.0-0.0","b5l4mon4oh","Thursday 11/20, at 8:00 PM","[""https://raw.githubusercontent.com/annapusok731/lookit-stimuli-template/master/test_stimuli/bridget_bridget1.jpg"",""https://raw.githubusercontent.com/annapusok731/lookit-stimuli-template/master/test_stimuli/bridget_alexis1.jpg""]","","","","","","","","","","","","","","","","","","","","","","","","","","","","","","","","","","","","","","","","","","","","","","","","","","","","","","","","","","","","","","","","","","","","","","","","","","","","","","","","","","","","","",""
"null","
            <div style=""text-align: center;"">
                <p style=""color: #666; font-size: 20px; margin-top: 10px; "">Trial 18 of 96</p>
                <div class=""face-images"">
                    <img src=""https://raw.githubusercontent.com/annapusok731/composite_face_effect_studies/main/CFE_Adult/aligned/grace_hanna.jpg"" alt=""Face 1"">
                    <img src=""https://raw.githubusercontent.com/annapusok731/composite_face_effect_studies/main/CFE_Adult/aligned/hanna_grace.jpg"" alt=""Face 2"">
                </div>
                <h2 class=""trial-question"">Are the top parts of the faces the same or different?</h2>
            </div>
        ","null","html-button-response","66","238583","0.0-25.0-1.0","b5l4mon4oh","Thursday 11/20, at 8:00 PM","[""https://raw.githubusercontent.com/annapusok731/lookit-stimuli-template/master/test_stimuli/bridget_bridget1.jpg"",""https://raw.githubusercontent.com/annapusok731/lookit-stimuli-template/master/test_stimuli/bridget_alexis1.jpg""]","","","","","","main_viewing","18","","","","","https://raw.githubusercontent.com/annapusok731/composite_face_effect_studies/main/CFE_Adult/aligned/grace_hanna.jpg","https://raw.githubusercontent.com/annapusok731/composite_face_effect_studies/main/CFE_Adult/aligned/hanna_grace.jpg","","","","","","","","","","","","","","","","","","","","","","","","","","","","","","","","","","","","","","","","","","","","","","","","","","","","","","","","","","","","","","","","","","","","","","","","",""
"513","
                        <div style=""text-align: center;"">
                            <p style=""color: #666; font-size: 20px; margin-top: 10px;"">Trial 18 of 96</p>
                            <h2 class=""trial-question"">Are the top parts of the faces the same or different?</h2>
                        </div>
                    ","1","html-button-response","67","239097","0.0-25.0-2.0","b5l4mon4oh","Thursday 11/20, at 8:00 PM","[""https://raw.githubusercontent.com/annapusok731/lookit-stimuli-template/master/test_stimuli/bridget_bridget1.jpg"",""https://raw.githubusercontent.com/annapusok731/lookit-stimuli-template/master/test_stimuli/bridget_alexis1.jpg""]","","","","","","main","18","different","different","true","513","https://raw.githubusercontent.com/annapusok731/composite_face_effect_studies/main/CFE_Adult/aligned/grace_hanna.jpg","https://raw.githubusercontent.com/annapusok731/composite_face_effect_studies/main/CFE_Adult/aligned/hanna_grace.jpg","diff_align","","","","","","","","","","","","","","","","","","","","","","","","","","","","","","","","","","","","","","","","","","","","","","","","","","","","","","","","","","","","","","","","","","","","","","","",""
"null","<div class=""fixation-cross"">+</div>","null","html-keyboard-response","68","240299","0.0-26.0-0.0","b5l4mon4oh","Thursday 11/20, at 8:00 PM","[""https://raw.githubusercontent.com/annapusok731/lookit-stimuli-template/master/test_stimuli/bridget_bridget1.jpg"",""https://raw.githubusercontent.com/annapusok731/lookit-stimuli-template/master/test_stimuli/bridget_alexis1.jpg""]","","","","","","","","","","","","","","","","","","","","","","","","","","","","","","","","","","","","","","","","","","","","","","","","","","","","","","","","","","","","","","","","","","","","","","","","","","","","","","","","","","","","","",""
"null","
            <div style=""text-align: center;"">
                <p style=""color: #666; font-size: 20px; margin-top: 10px; "">Trial 19 of 96</p>
                <div class=""face-images"">
                    <img src=""https://raw.githubusercontent.com/annapusok731/composite_face_effect_studies/main/CFE_Adult/misaligned/dorothy_shelby.jpg"" alt=""Face 1"">
                    <img src=""https://raw.githubusercontent.com/annapusok731/composite_face_effect_studies/main/CFE_Adult/misaligned/shelby_dorothy.jpg"" alt=""Face 2"">
                </div>
                <h2 class=""trial-question"">Are the top parts of the faces the same or different?</h2>
            </div>
        ","null","html-button-response","69","241301","0.0-26.0-1.0","b5l4mon4oh","Thursday 11/20, at 8:00 PM","[""https://raw.githubusercontent.com/annapusok731/lookit-stimuli-template/master/test_stimuli/bridget_bridget1.jpg"",""https://raw.githubusercontent.com/annapusok731/lookit-stimuli-template/master/test_stimuli/bridget_alexis1.jpg""]","","","","","","main_viewing","19","","","","","https://raw.githubusercontent.com/annapusok731/composite_face_effect_studies/main/CFE_Adult/misaligned/dorothy_shelby.jpg","https://raw.githubusercontent.com/annapusok731/composite_face_effect_studies/main/CFE_Adult/misaligned/shelby_dorothy.jpg","","","","","","","","","","","","","","","","","","","","","","","","","","","","","","","","","","","","","","","","","","","","","","","","","","","","","","","","","","","","","","","","","","","","","","","","",""
"594","
                        <div style=""text-align: center;"">
                            <p style=""color: #666; font-size: 20px; margin-top: 10px;"">Trial 19 of 96</p>
                            <h2 class=""trial-question"">Are the top parts of the faces the same or different?</h2>
                        </div>
                    ","1","html-button-response","70","241897","0.0-26.0-2.0","b5l4mon4oh","Thursday 11/20, at 8:00 PM","[""https://raw.githubusercontent.com/annapusok731/lookit-stimuli-template/master/test_stimuli/bridget_bridget1.jpg"",""https://raw.githubusercontent.com/annapusok731/lookit-stimuli-template/master/test_stimuli/bridget_alexis1.jpg""]","","","","","","main","19","different","different","true","594","https://raw.githubusercontent.com/annapusok731/composite_face_effect_studies/main/CFE_Adult/misaligned/dorothy_shelby.jpg","https://raw.githubusercontent.com/annapusok731/composite_face_effect_studies/main/CFE_Adult/misaligned/shelby_dorothy.jpg","diff_misalign","","","","","","","","","","","","","","","","","","","","","","","","","","","","","","","","","","","","","","","","","","","","","","","","","","","","","","","","","","","","","","","","","","","","","","","",""
"null","<div class=""fixation-cross"">+</div>","null","html-keyboard-response","71","243099","0.0-27.0-0.0","b5l4mon4oh","Thursday 11/20, at 8:00 PM","[""https://raw.githubusercontent.com/annapusok731/lookit-stimuli-template/master/test_stimuli/bridget_bridget1.jpg"",""https://raw.githubusercontent.com/annapusok731/lookit-stimuli-template/master/test_stimuli/bridget_alexis1.jpg""]","","","","","","","","","","","","","","","","","","","","","","","","","","","","","","","","","","","","","","","","","","","","","","","","","","","","","","","","","","","","","","","","","","","","","","","","","","","","","","","","","","","","","",""
"null","
            <div style=""text-align: center;"">
                <p style=""color: #666; font-size: 20px; margin-top: 10px; "">Trial 20 of 96</p>
                <div class=""face-images"">
                    <img src=""https://raw.githubusercontent.com/annapusok731/composite_face_effect_studies/main/CFE_Adult/misaligned/cameron_wilson.jpg"" alt=""Face 1"">
                    <img src=""https://raw.githubusercontent.com/annapusok731/composite_face_effect_studies/main/CFE_Adult/misaligned/wilson_cameron.jpg"" alt=""Face 2"">
                </div>
                <h2 class=""trial-question"">Are the top parts of the faces the same or different?</h2>
            </div>
        ","null","html-button-response","72","244102","0.0-27.0-1.0","b5l4mon4oh","Thursday 11/20, at 8:00 PM","[""https://raw.githubusercontent.com/annapusok731/lookit-stimuli-template/master/test_stimuli/bridget_bridget1.jpg"",""https://raw.githubusercontent.com/annapusok731/lookit-stimuli-template/master/test_stimuli/bridget_alexis1.jpg""]","","","","","","main_viewing","20","","","","","https://raw.githubusercontent.com/annapusok731/composite_face_effect_studies/main/CFE_Adult/misaligned/cameron_wilson.jpg","https://raw.githubusercontent.com/annapusok731/composite_face_effect_studies/main/CFE_Adult/misaligned/wilson_cameron.jpg","","","","","","","","","","","","","","","","","","","","","","","","","","","","","","","","","","","","","","","","","","","","","","","","","","","","","","","","","","","","","","","","","","","","","","","","",""
"828","
                        <div style=""text-align: center;"">
                            <p style=""color: #666; font-size: 20px; margin-top: 10px;"">Trial 20 of 96</p>
                            <h2 class=""trial-question"">Are the top parts of the faces the same or different?</h2>
                        </div>
                    ","1","html-button-response","73","244931","0.0-27.0-2.0","b5l4mon4oh","Thursday 11/20, at 8:00 PM","[""https://raw.githubusercontent.com/annapusok731/lookit-stimuli-template/master/test_stimuli/bridget_bridget1.jpg"",""https://raw.githubusercontent.com/annapusok731/lookit-stimuli-template/master/test_stimuli/bridget_alexis1.jpg""]","","","","","","main","20","different","different","true","828","https://raw.githubusercontent.com/annapusok731/composite_face_effect_studies/main/CFE_Adult/misaligned/cameron_wilson.jpg","https://raw.githubusercontent.com/annapusok731/composite_face_effect_studies/main/CFE_Adult/misaligned/wilson_cameron.jpg","diff_misalign","","","","","","","","","","","","","","","","","","","","","","","","","","","","","","","","","","","","","","","","","","","","","","","","","","","","","","","","","","","","","","","","","","","","","","","",""
"null","<div class=""fixation-cross"">+</div>","null","html-keyboard-response","74","246133","0.0-28.0-0.0","b5l4mon4oh","Thursday 11/20, at 8:00 PM","[""https://raw.githubusercontent.com/annapusok731/lookit-stimuli-template/master/test_stimuli/bridget_bridget1.jpg"",""https://raw.githubusercontent.com/annapusok731/lookit-stimuli-template/master/test_stimuli/bridget_alexis1.jpg""]","","","","","","","","","","","","","","","","","","","","","","","","","","","","","","","","","","","","","","","","","","","","","","","","","","","","","","","","","","","","","","","","","","","","","","","","","","","","","","","","","","","","","",""
"null","
            <div style=""text-align: center;"">
                <p style=""color: #666; font-size: 20px; margin-top: 10px; "">Trial 21 of 96</p>
                <div class=""face-images"">
                    <img src=""https://raw.githubusercontent.com/annapusok731/composite_face_effect_studies/main/CFE_Adult/misaligned/casper_christian.jpg"" alt=""Face 1"">
                    <img src=""https://raw.githubusercontent.com/annapusok731/composite_face_effect_studies/main/CFE_Adult/misaligned/casper_casper.jpg"" alt=""Face 2"">
                </div>
                <h2 class=""trial-question"">Are the top parts of the faces the same or different?</h2>
            </div>
        ","null","html-button-response","75","247135","0.0-28.0-1.0","b5l4mon4oh","Thursday 11/20, at 8:00 PM","[""https://raw.githubusercontent.com/annapusok731/lookit-stimuli-template/master/test_stimuli/bridget_bridget1.jpg"",""https://raw.githubusercontent.com/annapusok731/lookit-stimuli-template/master/test_stimuli/bridget_alexis1.jpg""]","","","","","","main_viewing","21","","","","","https://raw.githubusercontent.com/annapusok731/composite_face_effect_studies/main/CFE_Adult/misaligned/casper_christian.jpg","https://raw.githubusercontent.com/annapusok731/composite_face_effect_studies/main/CFE_Adult/misaligned/casper_casper.jpg","","","","","","","","","","","","","","","","","","","","","","","","","","","","","","","","","","","","","","","","","","","","","","","","","","","","","","","","","","","","","","","","","","","","","","","","",""
"660","
                        <div style=""text-align: center;"">
                            <p style=""color: #666; font-size: 20px; margin-top: 10px;"">Trial 21 of 96</p>
                            <h2 class=""trial-question"">Are the top parts of the faces the same or different?</h2>
                        </div>
                    ","0","html-button-response","76","247796","0.0-28.0-2.0","b5l4mon4oh","Thursday 11/20, at 8:00 PM","[""https://raw.githubusercontent.com/annapusok731/lookit-stimuli-template/master/test_stimuli/bridget_bridget1.jpg"",""https://raw.githubusercontent.com/annapusok731/lookit-stimuli-template/master/test_stimuli/bridget_alexis1.jpg""]","","","","","","main","21","same","same","true","660","https://raw.githubusercontent.com/annapusok731/composite_face_effect_studies/main/CFE_Adult/misaligned/casper_christian.jpg","https://raw.githubusercontent.com/annapusok731/composite_face_effect_studies/main/CFE_Adult/misaligned/casper_casper.jpg","same_misaligned","","","","","","","","","","","","","","","","","","","","","","","","","","","","","","","","","","","","","","","","","","","","","","","","","","","","","","","","","","","","","","","","","","","","","","","",""
"null","<div class=""fixation-cross"">+</div>","null","html-keyboard-response","77","248998","0.0-29.0-0.0","b5l4mon4oh","Thursday 11/20, at 8:00 PM","[""https://raw.githubusercontent.com/annapusok731/lookit-stimuli-template/master/test_stimuli/bridget_bridget1.jpg"",""https://raw.githubusercontent.com/annapusok731/lookit-stimuli-template/master/test_stimuli/bridget_alexis1.jpg""]","","","","","","","","","","","","","","","","","","","","","","","","","","","","","","","","","","","","","","","","","","","","","","","","","","","","","","","","","","","","","","","","","","","","","","","","","","","","","","","","","","","","","",""
"null","
            <div style=""text-align: center;"">
                <p style=""color: #666; font-size: 20px; margin-top: 10px; "">Trial 22 of 96</p>
                <div class=""face-images"">
                    <img src=""https://raw.githubusercontent.com/annapusok731/composite_face_effect_studies/main/CFE_Adult/aligned/collin_collin.jpg"" alt=""Face 1"">
                    <img src=""https://raw.githubusercontent.com/annapusok731/composite_face_effect_studies/main/CFE_Adult/aligned/collin_gage.jpg"" alt=""Face 2"">
                </div>
                <h2 class=""trial-question"">Are the top parts of the faces the same or different?</h2>
            </div>
        ","null","html-button-response","78","250000","0.0-29.0-1.0","b5l4mon4oh","Thursday 11/20, at 8:00 PM","[""https://raw.githubusercontent.com/annapusok731/lookit-stimuli-template/master/test_stimuli/bridget_bridget1.jpg"",""https://raw.githubusercontent.com/annapusok731/lookit-stimuli-template/master/test_stimuli/bridget_alexis1.jpg""]","","","","","","main_viewing","22","","","","","https://raw.githubusercontent.com/annapusok731/composite_face_effect_studies/main/CFE_Adult/aligned/collin_collin.jpg","https://raw.githubusercontent.com/annapusok731/composite_face_effect_studies/main/CFE_Adult/aligned/collin_gage.jpg","","","","","","","","","","","","","","","","","","","","","","","","","","","","","","","","","","","","","","","","","","","","","","","","","","","","","","","","","","","","","","","","","","","","","","","","",""
"1129","
                        <div style=""text-align: center;"">
                            <p style=""color: #666; font-size: 20px; margin-top: 10px;"">Trial 22 of 96</p>
                            <h2 class=""trial-question"">Are the top parts of the faces the same or different?</h2>
                        </div>
                    ","0","html-button-response","79","251130","0.0-29.0-2.0","b5l4mon4oh","Thursday 11/20, at 8:00 PM","[""https://raw.githubusercontent.com/annapusok731/lookit-stimuli-template/master/test_stimuli/bridget_bridget1.jpg"",""https://raw.githubusercontent.com/annapusok731/lookit-stimuli-template/master/test_stimuli/bridget_alexis1.jpg""]","","","","","","main","22","same","same","true","1129","https://raw.githubusercontent.com/annapusok731/composite_face_effect_studies/main/CFE_Adult/aligned/collin_collin.jpg","https://raw.githubusercontent.com/annapusok731/composite_face_effect_studies/main/CFE_Adult/aligned/collin_gage.jpg","same_aligned","","","","","","","","","","","","","","","","","","","","","","","","","","","","","","","","","","","","","","","","","","","","","","","","","","","","","","","","","","","","","","","","","","","","","","","",""
"null","<div class=""fixation-cross"">+</div>","null","html-keyboard-response","80","252332","0.0-30.0-0.0","b5l4mon4oh","Thursday 11/20, at 8:00 PM","[""https://raw.githubusercontent.com/annapusok731/lookit-stimuli-template/master/test_stimuli/bridget_bridget1.jpg"",""https://raw.githubusercontent.com/annapusok731/lookit-stimuli-template/master/test_stimuli/bridget_alexis1.jpg""]","","","","","","","","","","","","","","","","","","","","","","","","","","","","","","","","","","","","","","","","","","","","","","","","","","","","","","","","","","","","","","","","","","","","","","","","","","","","","","","","","","","","","",""
"null","
            <div style=""text-align: center;"">
                <p style=""color: #666; font-size: 20px; margin-top: 10px; "">Trial 23 of 96</p>
                <div class=""face-images"">
                    <img src=""https://raw.githubusercontent.com/annapusok731/composite_face_effect_studies/main/CFE_Adult/aligned/luca_david.jpg"" alt=""Face 1"">
                    <img src=""https://raw.githubusercontent.com/annapusok731/composite_face_effect_studies/main/CFE_Adult/aligned/luca_luca.jpg"" alt=""Face 2"">
                </div>
                <h2 class=""trial-question"">Are the top parts of the faces the same or different?</h2>
            </div>
        ","null","html-button-response","81","253334","0.0-30.0-1.0","b5l4mon4oh","Thursday 11/20, at 8:00 PM","[""https://raw.githubusercontent.com/annapusok731/lookit-stimuli-template/master/test_stimuli/bridget_bridget1.jpg"",""https://raw.githubusercontent.com/annapusok731/lookit-stimuli-template/master/test_stimuli/bridget_alexis1.jpg""]","","","","","","main_viewing","23","","","","","https://raw.githubusercontent.com/annapusok731/composite_face_effect_studies/main/CFE_Adult/aligned/luca_david.jpg","https://raw.githubusercontent.com/annapusok731/composite_face_effect_studies/main/CFE_Adult/aligned/luca_luca.jpg","","","","","","","","","","","","","","","","","","","","","","","","","","","","","","","","","","","","","","","","","","","","","","","","","","","","","","","","","","","","","","","","","","","","","","","","",""
"778","
                        <div style=""text-align: center;"">
                            <p style=""color: #666; font-size: 20px; margin-top: 10px;"">Trial 23 of 96</p>
                            <h2 class=""trial-question"">Are the top parts of the faces the same or different?</h2>
                        </div>
                    ","0","html-button-response","82","254113","0.0-30.0-2.0","b5l4mon4oh","Thursday 11/20, at 8:00 PM","[""https://raw.githubusercontent.com/annapusok731/lookit-stimuli-template/master/test_stimuli/bridget_bridget1.jpg"",""https://raw.githubusercontent.com/annapusok731/lookit-stimuli-template/master/test_stimuli/bridget_alexis1.jpg""]","","","","","","main","23","same","same","true","778","https://raw.githubusercontent.com/annapusok731/composite_face_effect_studies/main/CFE_Adult/aligned/luca_david.jpg","https://raw.githubusercontent.com/annapusok731/composite_face_effect_studies/main/CFE_Adult/aligned/luca_luca.jpg","same_aligned","","","","","","","","","","","","","","","","","","","","","","","","","","","","","","","","","","","","","","","","","","","","","","","","","","","","","","","","","","","","","","","","","","","","","","","",""
"null","<div class=""fixation-cross"">+</div>","null","html-keyboard-response","83","255315","0.0-31.0-0.0","b5l4mon4oh","Thursday 11/20, at 8:00 PM","[""https://raw.githubusercontent.com/annapusok731/lookit-stimuli-template/master/test_stimuli/bridget_bridget1.jpg"",""https://raw.githubusercontent.com/annapusok731/lookit-stimuli-template/master/test_stimuli/bridget_alexis1.jpg""]","","","","","","","","","","","","","","","","","","","","","","","","","","","","","","","","","","","","","","","","","","","","","","","","","","","","","","","","","","","","","","","","","","","","","","","","","","","","","","","","","","","","","",""
"null","
            <div style=""text-align: center;"">
                <p style=""color: #666; font-size: 20px; margin-top: 10px; "">Trial 24 of 96</p>
                <div class=""face-images"">
                    <img src=""https://raw.githubusercontent.com/annapusok731/composite_face_effect_studies/main/CFE_Adult/aligned/tina_tina.jpg"" alt=""Face 1"">
                    <img src=""https://raw.githubusercontent.com/annapusok731/composite_face_effect_studies/main/CFE_Adult/aligned/tina_alexis.jpg"" alt=""Face 2"">
                </div>
                <h2 class=""trial-question"">Are the top parts of the faces the same or different?</h2>
            </div>
        ","null","html-button-response","84","256318","0.0-31.0-1.0","b5l4mon4oh","Thursday 11/20, at 8:00 PM","[""https://raw.githubusercontent.com/annapusok731/lookit-stimuli-template/master/test_stimuli/bridget_bridget1.jpg"",""https://raw.githubusercontent.com/annapusok731/lookit-stimuli-template/master/test_stimuli/bridget_alexis1.jpg""]","","","","","","main_viewing","24","","","","","https://raw.githubusercontent.com/annapusok731/composite_face_effect_studies/main/CFE_Adult/aligned/tina_tina.jpg","https://raw.githubusercontent.com/annapusok731/composite_face_effect_studies/main/CFE_Adult/aligned/tina_alexis.jpg","","","","","","","","","","","","","","","","","","","","","","","","","","","","","","","","","","","","","","","","","","","","","","","","","","","","","","","","","","","","","","","","","","","","","","","","",""
"2911","
                        <div style=""text-align: center;"">
                            <p style=""color: #666; font-size: 20px; margin-top: 10px;"">Trial 24 of 96</p>
                            <h2 class=""trial-question"">Are the top parts of the faces the same or different?</h2>
                        </div>
                    ","0","html-button-response","85","259230","0.0-31.0-2.0","b5l4mon4oh","Thursday 11/20, at 8:00 PM","[""https://raw.githubusercontent.com/annapusok731/lookit-stimuli-template/master/test_stimuli/bridget_bridget1.jpg"",""https://raw.githubusercontent.com/annapusok731/lookit-stimuli-template/master/test_stimuli/bridget_alexis1.jpg""]","","","","","","main","24","same","same","true","2911","https://raw.githubusercontent.com/annapusok731/composite_face_effect_studies/main/CFE_Adult/aligned/tina_tina.jpg","https://raw.githubusercontent.com/annapusok731/composite_face_effect_studies/main/CFE_Adult/aligned/tina_alexis.jpg","same_aligned","","","","","","","","","","","","","","","","","","","","","","","","","","","","","","","","","","","","","","","","","","","","","","","","","","","","","","","","","","","","","","","","","","","","","","","",""
"null","<div class=""fixation-cross"">+</div>","null","html-keyboard-response","86","260432","0.0-32.0-0.0","b5l4mon4oh","Thursday 11/20, at 8:00 PM","[""https://raw.githubusercontent.com/annapusok731/lookit-stimuli-template/master/test_stimuli/bridget_bridget1.jpg"",""https://raw.githubusercontent.com/annapusok731/lookit-stimuli-template/master/test_stimuli/bridget_alexis1.jpg""]","","","","","","","","","","","","","","","","","","","","","","","","","","","","","","","","","","","","","","","","","","","","","","","","","","","","","","","","","","","","","","","","","","","","","","","","","","","","","","","","","","","","","",""
"null","
            <div style=""text-align: center;"">
                <p style=""color: #666; font-size: 20px; margin-top: 10px; "">Trial 25 of 96</p>
                <div class=""face-images"">
                    <img src=""https://raw.githubusercontent.com/annapusok731/composite_face_effect_studies/main/CFE_Adult/aligned/sara_vanessa.jpg"" alt=""Face 1"">
                    <img src=""https://raw.githubusercontent.com/annapusok731/composite_face_effect_studies/main/CFE_Adult/aligned/vanessa_sara.jpg"" alt=""Face 2"">
                </div>
                <h2 class=""trial-question"">Are the top parts of the faces the same or different?</h2>
            </div>
        ","null","html-button-response","87","261434","0.0-32.0-1.0","b5l4mon4oh","Thursday 11/20, at 8:00 PM","[""https://raw.githubusercontent.com/annapusok731/lookit-stimuli-template/master/test_stimuli/bridget_bridget1.jpg"",""https://raw.githubusercontent.com/annapusok731/lookit-stimuli-template/master/test_stimuli/bridget_alexis1.jpg""]","","","","","","main_viewing","25","","","","","https://raw.githubusercontent.com/annapusok731/composite_face_effect_studies/main/CFE_Adult/aligned/sara_vanessa.jpg","https://raw.githubusercontent.com/annapusok731/composite_face_effect_studies/main/CFE_Adult/aligned/vanessa_sara.jpg","","","","","","","","","","","","","","","","","","","","","","","","","","","","","","","","","","","","","","","","","","","","","","","","","","","","","","","","","","","","","","","","","","","","","","","","",""
"611","
                        <div style=""text-align: center;"">
                            <p style=""color: #666; font-size: 20px; margin-top: 10px;"">Trial 25 of 96</p>
                            <h2 class=""trial-question"">Are the top parts of the faces the same or different?</h2>
                        </div>
