rt,stimulus,response,trial_type,trial_index,time_elapsed,internal_node_id,subject_id,timeslot,current_practice_images,success,timeout,failed_images,failed_audio,failed_video,task,trial_number,correct_answer,response_label,correct,response_time_ms,image_left,image_right,condition,question_order,Q1,Q2,Q3,Q4,Q5,Q6,Q7,Q8,Q9,Q10,Q11,Q12,Q13,Q14,Q15,Q16,Q17,Q18,Q19,Q20,Q21,Q22,Q23,Q24,Q25,Q26,Q27,Q28,Q29,Q30,Q31,Q32,Q33,Q34,Q35,Q36,Q37,Q38,Q39,Q40,Q41,Q42,Q43,Q44,Q45,Q46,Q47,Q48,Q49,Q50,Q51,Q52,Q53,Q54,Q55,Q56,Q57,Q58,Q59,Q60,Q61,Q62,Q63,Q64,Q65,srs_total_score,age,race_ethnicity,sex,education,living_status
323270,"
            <h1>Research Study Consent Form</h1>
            <div class=""consent-content"">
                <p>You are being invited to participate in a research study titled ""Reproducibility of Psychological Science and Instruction."" This study is being done by Dr. Bria Long from UC San Diego and associated graduate students in Experimental Methods course. You were selected to participate in this study because you are an adult in the U.S. and have been a represented population in previous psychology studies.</p>
                
                <p>The purpose of this study is to better understand how well previously published studies in the psychological field replicate online and with different populations. Your participation in this research should last approximately 5-30 minutes. If you agree to take part in this study, you may be asked to view a set of stimuli, including pictures, sounds, written text, or videos and then giving some responses via key-presses, verbally, or with paper-and-pencil. We may also observe your choices or preferences among an array of stimuli. These stimuli will be taken directly from or closely adapted from studies that already exist in the published psychological literature. Stimuli will include, e.g., pictures of objects and human faces, audio and video clips, short text passages, etc. None of the stimuli will be disturbing, threatening, or offensive. The online and in-person experiments described in this protocol will take no more than 30 minutes. An example game you might play would be to click on an image on the screen that matches a word you hear being said out loud. Your total expected time commitment for this study is between 5-30 minutes, and is specified in the study description.</p>
                
                <p>Your participation in this study is completely voluntary and you can withdraw at any time. Choosing not to participate or withdrawing will result in no penalty or loss of benefits to which you are entitled. You are free to skip any question that you choose.</p>
                
                <p>We will not be asking for any personally identifying information, and we will handle responses as confidentially as possible. Your SONA or Prolific IDs will never be tied to your responses on this survey. However, we cannot guarantee the confidentiality of information transmitted over the Internet. To minimize this risk, data containing anything that might be personally identifiable (e.g. Prolific IDs or IP addresses) will be encrypted on transfer and storage and will only be accessible to qualified lab personnel. We will be keeping data collected as part of this experiment indefinitely. This anonymized data (containing neither Prolific IDs nor IP addresses) may be shared with the scientific community or with other participants to be used as stimuli in future studies.</p>
                
                <p>If you have questions about this project or if you have a research-related problem, you may contact the researcher(s), Dr. Bria Long, <a href=""mailto:brlong@ucsd.edu"">brlong@ucsd.edu</a>. If you have any questions concerning your rights as a research subject, you may contact the UC San Diego Office of IRB Administration at <a href=""mailto:irb@ucsd.edu"">irb@ucsd.edu</a> or 858-246-4777.</p>
                
                <p><strong>By participating in this research you are indicating that you are at least 18 years old, have read this consent form, and agree to participate in this research study. Please keep this consent form for your records.</strong></p>
            </div>
        ",0,html-button-response,0,323272,0.0-0.0,luk16yjvn3,Monday at 2:00 PM,"[""https://raw.githubusercontent.com/annapusok731/lookit-stimuli-template/master/test_stimuli/bridget_alexis1.jpg"",""https://raw.githubusercontent.com/annapusok731/lookit-stimuli-template/master/test_stimuli/bridget_bridget1.jpg""]",,,,,,,,,,,,,,,,,,,,,,,,,,,,,,,,,,,,,,,,,,,,,,,,,,,,,,,,,,,,,,,,,,,,,,,,,,,,,,,,,,,,,,
12034,"
            <h1>Timeslot Information</h1>
            <div class=""demographics-form"">
                <div class=""form-group"">
                    <label for=""timeslot"">What is the date/time you signed up for? We will need this information to verify your session and issue your credit within 3 days of participation.</label>
                    <input type=""text"" id=""timeslot"" name=""timeslot"" placeholder=""e.g., Monday 11/18 at 2:00 PM"" required>
                </div>
            </div>
        ",0,html-button-response,1,335307,0.0-1.0,luk16yjvn3,Monday at 2:00 PM,"[""https://raw.githubusercontent.com/annapusok731/lookit-stimuli-template/master/test_stimuli/bridget_alexis1.jpg"",""https://raw.githubusercontent.com/annapusok731/lookit-stimuli-template/master/test_stimuli/bridget_bridget1.jpg""]",,,,,,,,,,,,,,,,,,,,,,,,,,,,,,,,,,,,,,,,,,,,,,,,,,,,,,,,,,,,,,,,,,,,,,,,,,,,,,,,,,,,,,
1033,"
            <h1>Instructions</h1>
            <p>In this task, you will see two pictures of faces side-by-side. They will be visible for a short amount of time.</p>
            <p>You will have to decide whether the top parts of the faces are the same or different.</p>
            <p>To answer, click on either the ""SAME"" or ""DIFFERENT"" buttons below the images.</p>
            <p>Try to answer as quickly as you can.</p>
            <p>There will be two practice trials. Once you click on ""Next"" after the second practice, the experiment will automatically start.</p>
            <p>After the experiment, we ask you to fill out two surveys.</p>
        ",0,html-button-response,2,336342,0.0-2.0,luk16yjvn3,Monday at 2:00 PM,"[""https://raw.githubusercontent.com/annapusok731/lookit-stimuli-template/master/test_stimuli/bridget_alexis1.jpg"",""https://raw.githubusercontent.com/annapusok731/lookit-stimuli-template/master/test_stimuli/bridget_bridget1.jpg""]",,,,,,,,,,,,,,,,,,,,,,,,,,,,,,,,,,,,,,,,,,,,,,,,,,,,,,,,,,,,,,,,,,,,,,,,,,,,,,,,,,,,,,
,,,preload,3,337036,0.0-3.0,luk16yjvn3,Monday at 2:00 PM,"[""https://raw.githubusercontent.com/annapusok731/lookit-stimuli-template/master/test_stimuli/bridget_alexis1.jpg"",""https://raw.githubusercontent.com/annapusok731/lookit-stimuli-template/master/test_stimuli/bridget_bridget1.jpg""]",TRUE,FALSE,[],[],[],,,,,,,,,,,,,,,,,,,,,,,,,,,,,,,,,,,,,,,,,,,,,,,,,,,,,,,,,,,,,,,,,,,,,,,,,,,,,,,,,
1274,,,fullscreen,4,339317,0.0-4.0,luk16yjvn3,Monday at 2:00 PM,"[""https://raw.githubusercontent.com/annapusok731/lookit-stimuli-template/master/test_stimuli/bridget_alexis1.jpg"",""https://raw.githubusercontent.com/annapusok731/lookit-stimuli-template/master/test_stimuli/bridget_bridget1.jpg""]",TRUE,,,,,,,,,,,,,,,,,,,,,,,,,,,,,,,,,,,,,,,,,,,,,,,,,,,,,,,,,,,,,,,,,,,,,,,,,,,,,,,,,,,,,
null,"<div class=""fixation-cross"">+</div>",null,html-keyboard-response,5,340524,0.0-5.0-0.0,luk16yjvn3,Monday at 2:00 PM,"[""https://raw.githubusercontent.com/annapusok731/lookit-stimuli-template/master/test_stimuli/bridget_alexis1.jpg"",""https://raw.githubusercontent.com/annapusok731/lookit-stimuli-template/master/test_stimuli/bridget_bridget1.jpg""]",,,,,,,,,,,,,,,,,,,,,,,,,,,,,,,,,,,,,,,,,,,,,,,,,,,,,,,,,,,,,,,,,,,,,,,,,,,,,,,,,,,,,,
null,"
            <div style=""text-align: center;"">
                <p style=""color: #666; font-size: 20px; margin-top: 10px; "">Practice Trial 1 of 2</p>
                <div class=""face-images"">
                    <img src=""https://raw.githubusercontent.com/annapusok731/lookit-stimuli-template/master/test_stimuli/william_arnold1.jpg"" alt=""Face 1"">
                    <img src=""https://raw.githubusercontent.com/annapusok731/lookit-stimuli-template/master/test_stimuli/arnold_william1.jpg"" alt=""Face 2"">
                </div>
                <h2 class=""trial-question"">Are the top parts of the faces the same or different?</h2>
            </div>
        ",null,html-button-response,6,341534,0.0-5.0-1.0,luk16yjvn3,Monday at 2:00 PM,"[""https://raw.githubusercontent.com/annapusok731/lookit-stimuli-template/master/test_stimuli/bridget_alexis1.jpg"",""https://raw.githubusercontent.com/annapusok731/lookit-stimuli-template/master/test_stimuli/bridget_bridget1.jpg""]",,,,,,practice_viewing,1,,,,,,,,,,,,,,,,,,,,,,,,,,,,,,,,,,,,,,,,,,,,,,,,,,,,,,,,,,,,,,,,,,,,,,,,,,,,,,,
1292,"<h2 class=""trial-question"">Are the top parts of the faces the same or different?</h2>",1,html-button-response,7,342827,0.0-5.0-2.0,luk16yjvn3,Monday at 2:00 PM,"[""https://raw.githubusercontent.com/annapusok731/lookit-stimuli-template/master/test_stimuli/bridget_alexis1.jpg"",""https://raw.githubusercontent.com/annapusok731/lookit-stimuli-template/master/test_stimuli/bridget_bridget1.jpg""]",,,,,,practice,1,different,different,TRUE,1292,,,,,,,,,,,,,,,,,,,,,,,,,,,,,,,,,,,,,,,,,,,,,,,,,,,,,,,,,,,,,,,,,,,,,,,,,,,
2466,"
                                <h1 class=""feedback-correct"">Great job!</h1>
                                <p style=""font-size: 18px; margin-top: 20px;"">The top parts of the faces are different!</p>
                            ",0,html-button-response,8,345294,0.0-5.0-3.0,luk16yjvn3,Monday at 2:00 PM,"[""https://raw.githubusercontent.com/annapusok731/lookit-stimuli-template/master/test_stimuli/bridget_alexis1.jpg"",""https://raw.githubusercontent.com/annapusok731/lookit-stimuli-template/master/test_stimuli/bridget_bridget1.jpg""]",,,,,,,,,,,,,,,,,,,,,,,,,,,,,,,,,,,,,,,,,,,,,,,,,,,,,,,,,,,,,,,,,,,,,,,,,,,,,,,,,,,,,,
null,"<div class=""fixation-cross"">+</div>",null,html-keyboard-response,9,346501,0.0-6.0-0.0,luk16yjvn3,Monday at 2:00 PM,"[""https://raw.githubusercontent.com/annapusok731/lookit-stimuli-template/master/test_stimuli/bridget_alexis1.jpg"",""https://raw.githubusercontent.com/annapusok731/lookit-stimuli-template/master/test_stimuli/bridget_bridget1.jpg""]",,,,,,,,,,,,,,,,,,,,,,,,,,,,,,,,,,,,,,,,,,,,,,,,,,,,,,,,,,,,,,,,,,,,,,,,,,,,,,,,,,,,,,
null,"
            <div style=""text-align: center;"">
                <p style=""color: #666; font-size: 20px; margin-top: 10px; "">Practice Trial 2 of 2</p>
                <div class=""face-images"">
                    <img src=""https://raw.githubusercontent.com/annapusok731/lookit-stimuli-template/master/test_stimuli/bridget_alexis1.jpg"" alt=""Face 1"">
                    <img src=""https://raw.githubusercontent.com/annapusok731/lookit-stimuli-template/master/test_stimuli/bridget_bridget1.jpg"" alt=""Face 2"">
                </div>
                <h2 class=""trial-question"">Are the top parts of the faces the same or different?</h2>
            </div>
        ",null,html-button-response,10,347506,0.0-6.0-1.0,luk16yjvn3,Monday at 2:00 PM,"[""https://raw.githubusercontent.com/annapusok731/lookit-stimuli-template/master/test_stimuli/bridget_alexis1.jpg"",""https://raw.githubusercontent.com/annapusok731/lookit-stimuli-template/master/test_stimuli/bridget_bridget1.jpg""]",,,,,,practice_viewing,2,,,,,,,,,,,,,,,,,,,,,,,,,,,,,,,,,,,,,,,,,,,,,,,,,,,,,,,,,,,,,,,,,,,,,,,,,,,,,,,
675,"<h2 class=""trial-question"">Are the top parts of the faces the same or different?</h2>",0,html-button-response,11,348182,0.0-6.0-2.0,luk16yjvn3,Monday at 2:00 PM,"[""https://raw.githubusercontent.com/annapusok731/lookit-stimuli-template/master/test_stimuli/bridget_alexis1.jpg"",""https://raw.githubusercontent.com/annapusok731/lookit-stimuli-template/master/test_stimuli/bridget_bridget1.jpg""]",,,,,,practice,2,same,same,TRUE,675,,,,,,,,,,,,,,,,,,,,,,,,,,,,,,,,,,,,,,,,,,,,,,,,,,,,,,,,,,,,,,,,,,,,,,,,,,,
833,"
                                <h1 class=""feedback-correct"">Great job!</h1>
                                <p style=""font-size: 18px; margin-top: 20px;"">The top parts of the faces are same!</p>
                            ",0,html-button-response,12,349017,0.0-6.0-3.0,luk16yjvn3,Monday at 2:00 PM,"[""https://raw.githubusercontent.com/annapusok731/lookit-stimuli-template/master/test_stimuli/bridget_alexis1.jpg"",""https://raw.githubusercontent.com/annapusok731/lookit-stimuli-template/master/test_stimuli/bridget_bridget1.jpg""]",,,,,,,,,,,,,,,,,,,,,,,,,,,,,,,,,,,,,,,,,,,,,,,,,,,,,,,,,,,,,,,,,,,,,,,,,,,,,,,,,,,,,,
537,"
            <h1 class=""feedback-correct"">Practice Complete!</h1>
            <p style=""font-size: 18px; margin-top: 20px;"">Great job! Now starting the experiment.</p>
        ",0,html-button-response,13,349556,0.0-7.0,luk16yjvn3,Monday at 2:00 PM,"[""https://raw.githubusercontent.com/annapusok731/lookit-stimuli-template/master/test_stimuli/bridget_alexis1.jpg"",""https://raw.githubusercontent.com/annapusok731/lookit-stimuli-template/master/test_stimuli/bridget_bridget1.jpg""]",,,,,,,,,,,,,,,,,,,,,,,,,,,,,,,,,,,,,,,,,,,,,,,,,,,,,,,,,,,,,,,,,,,,,,,,,,,,,,,,,,,,,,
null,"<div class=""fixation-cross"">+</div>",null,html-keyboard-response,14,350765,0.0-8.0-0.0,luk16yjvn3,Monday at 2:00 PM,"[""https://raw.githubusercontent.com/annapusok731/lookit-stimuli-template/master/test_stimuli/bridget_alexis1.jpg"",""https://raw.githubusercontent.com/annapusok731/lookit-stimuli-template/master/test_stimuli/bridget_bridget1.jpg""]",,,,,,,,,,,,,,,,,,,,,,,,,,,,,,,,,,,,,,,,,,,,,,,,,,,,,,,,,,,,,,,,,,,,,,,,,,,,,,,,,,,,,,
null,"
            <div style=""text-align: center;"">
                <p style=""color: #666; font-size: 20px; margin-top: 10px; "">Trial 1 of 96</p>
                <div class=""face-images"">
                    <img src=""https://raw.githubusercontent.com/annapusok731/composite_face_effect_studies/main/CFE_Adult/aligned/gill_frank.jpg"" alt=""Face 1"">
                    <img src=""https://raw.githubusercontent.com/annapusok731/composite_face_effect_studies/main/CFE_Adult/aligned/gill_gill.jpg"" alt=""Face 2"">
                </div>
                <h2 class=""trial-question"">Are the top parts of the faces the same or different?</h2>
            </div>
        ",null,html-button-response,15,351783,0.0-8.0-1.0,luk16yjvn3,Monday at 2:00 PM,"[""https://raw.githubusercontent.com/annapusok731/lookit-stimuli-template/master/test_stimuli/bridget_alexis1.jpg"",""https://raw.githubusercontent.com/annapusok731/lookit-stimuli-template/master/test_stimuli/bridget_bridget1.jpg""]",,,,,,main_viewing,1,,,,,https://raw.githubusercontent.com/annapusok731/composite_face_effect_studies/main/CFE_Adult/aligned/gill_frank.jpg,https://raw.githubusercontent.com/annapusok731/composite_face_effect_studies/main/CFE_Adult/aligned/gill_gill.jpg,,,,,,,,,,,,,,,,,,,,,,,,,,,,,,,,,,,,,,,,,,,,,,,,,,,,,,,,,,,,,,,,,,,,,,,,,
695,"
                        <div style=""text-align: center;"">
                            <p style=""color: #666; font-size: 20px; margin-top: 10px;"">Trial 1 of 96</p>
                            <h2 class=""trial-question"">Are the top parts of the faces the same or different?</h2>
                        </div>
                    ",0,html-button-response,16,352479,0.0-8.0-2.0,luk16yjvn3,Monday at 2:00 PM,"[""https://raw.githubusercontent.com/annapusok731/lookit-stimuli-template/master/test_stimuli/bridget_alexis1.jpg"",""https://raw.githubusercontent.com/annapusok731/lookit-stimuli-template/master/test_stimuli/bridget_bridget1.jpg""]",,,,,,main,1,same,same,TRUE,695,https://raw.githubusercontent.com/annapusok731/composite_face_effect_studies/main/CFE_Adult/aligned/gill_frank.jpg,https://raw.githubusercontent.com/annapusok731/composite_face_effect_studies/main/CFE_Adult/aligned/gill_gill.jpg,same_aligned,,,,,,,,,,,,,,,,,,,,,,,,,,,,,,,,,,,,,,,,,,,,,,,,,,,,,,,,,,,,,,,,,,,,,,,,
null,"<div class=""fixation-cross"">+</div>",null,html-keyboard-response,17,353685,0.0-9.0-0.0,luk16yjvn3,Monday at 2:00 PM,"[""https://raw.githubusercontent.com/annapusok731/lookit-stimuli-template/master/test_stimuli/bridget_alexis1.jpg"",""https://raw.githubusercontent.com/annapusok731/lookit-stimuli-template/master/test_stimuli/bridget_bridget1.jpg""]",,,,,,,,,,,,,,,,,,,,,,,,,,,,,,,,,,,,,,,,,,,,,,,,,,,,,,,,,,,,,,,,,,,,,,,,,,,,,,,,,,,,,,
null,"
            <div style=""text-align: center;"">
                <p style=""color: #666; font-size: 20px; margin-top: 10px; "">Trial 2 of 96</p>
                <div class=""face-images"">
                    <img src=""https://raw.githubusercontent.com/annapusok731/composite_face_effect_studies/main/CFE_Adult/aligned/walker_charles.jpg"" alt=""Face 1"">
                    <img src=""https://raw.githubusercontent.com/annapusok731/composite_face_effect_studies/main/CFE_Adult/aligned/walker_walker.jpg"" alt=""Face 2"">
                </div>
                <h2 class=""trial-question"">Are the top parts of the faces the same or different?</h2>
            </div>
        ",null,html-button-response,18,354702,0.0-9.0-1.0,luk16yjvn3,Monday at 2:00 PM,"[""https://raw.githubusercontent.com/annapusok731/lookit-stimuli-template/master/test_stimuli/bridget_alexis1.jpg"",""https://raw.githubusercontent.com/annapusok731/lookit-stimuli-template/master/test_stimuli/bridget_bridget1.jpg""]",,,,,,main_viewing,2,,,,,https://raw.githubusercontent.com/annapusok731/composite_face_effect_studies/main/CFE_Adult/aligned/walker_charles.jpg,https://raw.githubusercontent.com/annapusok731/composite_face_effect_studies/main/CFE_Adult/aligned/walker_walker.jpg,,,,,,,,,,,,,,,,,,,,,,,,,,,,,,,,,,,,,,,,,,,,,,,,,,,,,,,,,,,,,,,,,,,,,,,,,
100,"
                        <div style=""text-align: center;"">
                            <p style=""color: #666; font-size: 20px; margin-top: 10px;"">Trial 2 of 96</p>
                            <h2 class=""trial-question"">Are the top parts of the faces the same or different?</h2>
                        </div>
                    ",0,html-button-response,19,354803,0.0-9.0-2.0,luk16yjvn3,Monday at 2:00 PM,"[""https://raw.githubusercontent.com/annapusok731/lookit-stimuli-template/master/test_stimuli/bridget_alexis1.jpg"",""https://raw.githubusercontent.com/annapusok731/lookit-stimuli-template/master/test_stimuli/bridget_bridget1.jpg""]",,,,,,main,2,same,same,TRUE,100,https://raw.githubusercontent.com/annapusok731/composite_face_effect_studies/main/CFE_Adult/aligned/walker_charles.jpg,https://raw.githubusercontent.com/annapusok731/composite_face_effect_studies/main/CFE_Adult/aligned/walker_walker.jpg,same_aligned,,,,,,,,,,,,,,,,,,,,,,,,,,,,,,,,,,,,,,,,,,,,,,,,,,,,,,,,,,,,,,,,,,,,,,,,
null,"<div class=""fixation-cross"">+</div>",null,html-keyboard-response,20,356019,0.0-10.0-0.0,luk16yjvn3,Monday at 2:00 PM,"[""https://raw.githubusercontent.com/annapusok731/lookit-stimuli-template/master/test_stimuli/bridget_alexis1.jpg"",""https://raw.githubusercontent.com/annapusok731/lookit-stimuli-template/master/test_stimuli/bridget_bridget1.jpg""]",,,,,,,,,,,,,,,,,,,,,,,,,,,,,,,,,,,,,,,,,,,,,,,,,,,,,,,,,,,,,,,,,,,,,,,,,,,,,,,,,,,,,,
null,"
            <div style=""text-align: center;"">
                <p style=""color: #666; font-size: 20px; margin-top: 10px; "">Trial 3 of 96</p>
                <div class=""face-images"">
                    <img src=""https://raw.githubusercontent.com/annapusok731/composite_face_effect_studies/main/CFE_Adult/misaligned/lyla_andie.jpg"" alt=""Face 1"">
                    <img src=""https://raw.githubusercontent.com/annapusok731/composite_face_effect_studies/main/CFE_Adult/misaligned/lyla_lyla.jpg"" alt=""Face 2"">
                </div>
                <h2 class=""trial-question"">Are the top parts of the faces the same or different?</h2>
            </div>
        ",null,html-button-response,21,357031,0.0-10.0-1.0,luk16yjvn3,Monday at 2:00 PM,"[""https://raw.githubusercontent.com/annapusok731/lookit-stimuli-template/master/test_stimuli/bridget_alexis1.jpg"",""https://raw.githubusercontent.com/annapusok731/lookit-stimuli-template/master/test_stimuli/bridget_bridget1.jpg""]",,,,,,main_viewing,3,,,,,https://raw.githubusercontent.com/annapusok731/composite_face_effect_studies/main/CFE_Adult/misaligned/lyla_andie.jpg,https://raw.githubusercontent.com/annapusok731/composite_face_effect_studies/main/CFE_Adult/misaligned/lyla_lyla.jpg,,,,,,,,,,,,,,,,,,,,,,,,,,,,,,,,,,,,,,,,,,,,,,,,,,,,,,,,,,,,,,,,,,,,,,,,,
251,"
                        <div style=""text-align: center;"">
                            <p style=""color: #666; font-size: 20px; margin-top: 10px;"">Trial 3 of 96</p>
                            <h2 class=""trial-question"">Are the top parts of the faces the same or different?</h2>
                        </div>
                    ",0,html-button-response,22,357283,0.0-10.0-2.0,luk16yjvn3,Monday at 2:00 PM,"[""https://raw.githubusercontent.com/annapusok731/lookit-stimuli-template/master/test_stimuli/bridget_alexis1.jpg"",""https://raw.githubusercontent.com/annapusok731/lookit-stimuli-template/master/test_stimuli/bridget_bridget1.jpg""]",,,,,,main,3,same,same,TRUE,251,https://raw.githubusercontent.com/annapusok731/composite_face_effect_studies/main/CFE_Adult/misaligned/lyla_andie.jpg,https://raw.githubusercontent.com/annapusok731/composite_face_effect_studies/main/CFE_Adult/misaligned/lyla_lyla.jpg,same_misaligned,,,,,,,,,,,,,,,,,,,,,,,,,,,,,,,,,,,,,,,,,,,,,,,,,,,,,,,,,,,,,,,,,,,,,,,,
null,"<div class=""fixation-cross"">+</div>",null,html-keyboard-response,23,358486,0.0-11.0-0.0,luk16yjvn3,Monday at 2:00 PM,"[""https://raw.githubusercontent.com/annapusok731/lookit-stimuli-template/master/test_stimuli/bridget_alexis1.jpg"",""https://raw.githubusercontent.com/annapusok731/lookit-stimuli-template/master/test_stimuli/bridget_bridget1.jpg""]",,,,,,,,,,,,,,,,,,,,,,,,,,,,,,,,,,,,,,,,,,,,,,,,,,,,,,,,,,,,,,,,,,,,,,,,,,,,,,,,,,,,,,
null,"
            <div style=""text-align: center;"">
                <p style=""color: #666; font-size: 20px; margin-top: 10px; "">Trial 4 of 96</p>
                <div class=""face-images"">
                    <img src=""https://raw.githubusercontent.com/annapusok731/composite_face_effect_studies/main/CFE_Adult/aligned/daisy_tammy.jpg"" alt=""Face 1"">
                    <img src=""https://raw.githubusercontent.com/annapusok731/composite_face_effect_studies/main/CFE_Adult/aligned/daisy_daisy.jpg"" alt=""Face 2"">
                </div>
                <h2 class=""trial-question"">Are the top parts of the faces the same or different?</h2>
            </div>
        ",null,html-button-response,24,359500,0.0-11.0-1.0,luk16yjvn3,Monday at 2:00 PM,"[""https://raw.githubusercontent.com/annapusok731/lookit-stimuli-template/master/test_stimuli/bridget_alexis1.jpg"",""https://raw.githubusercontent.com/annapusok731/lookit-stimuli-template/master/test_stimuli/bridget_bridget1.jpg""]",,,,,,main_viewing,4,,,,,https://raw.githubusercontent.com/annapusok731/composite_face_effect_studies/main/CFE_Adult/aligned/daisy_tammy.jpg,https://raw.githubusercontent.com/annapusok731/composite_face_effect_studies/main/CFE_Adult/aligned/daisy_daisy.jpg,,,,,,,,,,,,,,,,,,,,,,,,,,,,,,,,,,,,,,,,,,,,,,,,,,,,,,,,,,,,,,,,,,,,,,,,,
173,"
                        <div style=""text-align: center;"">
                            <p style=""color: #666; font-size: 20px; margin-top: 10px;"">Trial 4 of 96</p>
                            <h2 class=""trial-question"">Are the top parts of the faces the same or different?</h2>
                        </div>
                    ",0,html-button-response,25,359674,0.0-11.0-2.0,luk16yjvn3,Monday at 2:00 PM,"[""https://raw.githubusercontent.com/annapusok731/lookit-stimuli-template/master/test_stimuli/bridget_alexis1.jpg"",""https://raw.githubusercontent.com/annapusok731/lookit-stimuli-template/master/test_stimuli/bridget_bridget1.jpg""]",,,,,,main,4,same,same,TRUE,173,https://raw.githubusercontent.com/annapusok731/composite_face_effect_studies/main/CFE_Adult/aligned/daisy_tammy.jpg,https://raw.githubusercontent.com/annapusok731/composite_face_effect_studies/main/CFE_Adult/aligned/daisy_daisy.jpg,same_aligned,,,,,,,,,,,,,,,,,,,,,,,,,,,,,,,,,,,,,,,,,,,,,,,,,,,,,,,,,,,,,,,,,,,,,,,,
null,"<div class=""fixation-cross"">+</div>",null,html-keyboard-response,26,360882,0.0-12.0-0.0,luk16yjvn3,Monday at 2:00 PM,"[""https://raw.githubusercontent.com/annapusok731/lookit-stimuli-template/master/test_stimuli/bridget_alexis1.jpg"",""https://raw.githubusercontent.com/annapusok731/lookit-stimuli-template/master/test_stimuli/bridget_bridget1.jpg""]",,,,,,,,,,,,,,,,,,,,,,,,,,,,,,,,,,,,,,,,,,,,,,,,,,,,,,,,,,,,,,,,,,,,,,,,,,,,,,,,,,,,,,
null,"
            <div style=""text-align: center;"">
                <p style=""color: #666; font-size: 20px; margin-top: 10px; "">Trial 5 of 96</p>
                <div class=""face-images"">
                    <img src=""https://raw.githubusercontent.com/annapusok731/composite_face_effect_studies/main/CFE_Adult/aligned/velma_velma.jpg"" alt=""Face 1"">
                    <img src=""https://raw.githubusercontent.com/annapusok731/composite_face_effect_studies/main/CFE_Adult/aligned/velma_ellen.jpg"" alt=""Face 2"">
                </div>
                <h2 class=""trial-question"">Are the top parts of the faces the same or different?</h2>
            </div>
        ",null,html-button-response,27,361885,0.0-12.0-1.0,luk16yjvn3,Monday at 2:00 PM,"[""https://raw.githubusercontent.com/annapusok731/lookit-stimuli-template/master/test_stimuli/bridget_alexis1.jpg"",""https://raw.githubusercontent.com/annapusok731/lookit-stimuli-template/master/test_stimuli/bridget_bridget1.jpg""]",,,,,,main_viewing,5,,,,,https://raw.githubusercontent.com/annapusok731/composite_face_effect_studies/main/CFE_Adult/aligned/velma_velma.jpg,https://raw.githubusercontent.com/annapusok731/composite_face_effect_studies/main/CFE_Adult/aligned/velma_ellen.jpg,,,,,,,,,,,,,,,,,,,,,,,,,,,,,,,,,,,,,,,,,,,,,,,,,,,,,,,,,,,,,,,,,,,,,,,,,
126,"
                        <div style=""text-align: center;"">
                            <p style=""color: #666; font-size: 20px; margin-top: 10px;"">Trial 5 of 96</p>
                            <h2 class=""trial-question"">Are the top parts of the faces the same or different?</h2>
                        </div>
                    ",1,html-button-response,28,362013,0.0-12.0-2.0,luk16yjvn3,Monday at 2:00 PM,"[""https://raw.githubusercontent.com/annapusok731/lookit-stimuli-template/master/test_stimuli/bridget_alexis1.jpg"",""https://raw.githubusercontent.com/annapusok731/lookit-stimuli-template/master/test_stimuli/bridget_bridget1.jpg""]",,,,,,main,5,same,different,FALSE,126,https://raw.githubusercontent.com/annapusok731/composite_face_effect_studies/main/CFE_Adult/aligned/velma_velma.jpg,https://raw.githubusercontent.com/annapusok731/composite_face_effect_studies/main/CFE_Adult/aligned/velma_ellen.jpg,same_aligned,,,,,,,,,,,,,,,,,,,,,,,,,,,,,,,,,,,,,,,,,,,,,,,,,,,,,,,,,,,,,,,,,,,,,,,,
null,"<div class=""fixation-cross"">+</div>",null,html-keyboard-response,29,363215,0.0-13.0-0.0,luk16yjvn3,Monday at 2:00 PM,"[""https://raw.githubusercontent.com/annapusok731/lookit-stimuli-template/master/test_stimuli/bridget_alexis1.jpg"",""https://raw.githubusercontent.com/annapusok731/lookit-stimuli-template/master/test_stimuli/bridget_bridget1.jpg""]",,,,,,,,,,,,,,,,,,,,,,,,,,,,,,,,,,,,,,,,,,,,,,,,,,,,,,,,,,,,,,,,,,,,,,,,,,,,,,,,,,,,,,
null,"
            <div style=""text-align: center;"">
                <p style=""color: #666; font-size: 20px; margin-top: 10px; "">Trial 6 of 96</p>
                <div class=""face-images"">
                    <img src=""https://raw.githubusercontent.com/annapusok731/composite_face_effect_studies/main/CFE_Adult/misaligned/francesca_francesca.jpg"" alt=""Face 1"">
                    <img src=""https://raw.githubusercontent.com/annapusok731/composite_face_effect_studies/main/CFE_Adult/misaligned/francesca_astra.jpg"" alt=""Face 2"">
                </div>
                <h2 class=""trial-question"">Are the top parts of the faces the same or different?</h2>
            </div>
        ",null,html-button-response,30,364221,0.0-13.0-1.0,luk16yjvn3,Monday at 2:00 PM,"[""https://raw.githubusercontent.com/annapusok731/lookit-stimuli-template/master/test_stimuli/bridget_alexis1.jpg"",""https://raw.githubusercontent.com/annapusok731/lookit-stimuli-template/master/test_stimuli/bridget_bridget1.jpg""]",,,,,,main_viewing,6,,,,,https://raw.githubusercontent.com/annapusok731/composite_face_effect_studies/main/CFE_Adult/misaligned/francesca_francesca.jpg,https://raw.githubusercontent.com/annapusok731/composite_face_effect_studies/main/CFE_Adult/misaligned/francesca_astra.jpg,,,,,,,,,,,,,,,,,,,,,,,,,,,,,,,,,,,,,,,,,,,,,,,,,,,,,,,,,,,,,,,,,,,,,,,,,
130,"
                        <div style=""text-align: center;"">
                            <p style=""color: #666; font-size: 20px; margin-top: 10px;"">Trial 6 of 96</p>
                            <h2 class=""trial-question"">Are the top parts of the faces the same or different?</h2>
                        </div>
                    ",1,html-button-response,31,364352,0.0-13.0-2.0,luk16yjvn3,Monday at 2:00 PM,"[""https://raw.githubusercontent.com/annapusok731/lookit-stimuli-template/master/test_stimuli/bridget_alexis1.jpg"",""https://raw.githubusercontent.com/annapusok731/lookit-stimuli-template/master/test_stimuli/bridget_bridget1.jpg""]",,,,,,main,6,same,different,FALSE,130,https://raw.githubusercontent.com/annapusok731/composite_face_effect_studies/main/CFE_Adult/misaligned/francesca_francesca.jpg,https://raw.githubusercontent.com/annapusok731/composite_face_effect_studies/main/CFE_Adult/misaligned/francesca_astra.jpg,same_misaligned,,,,,,,,,,,,,,,,,,,,,,,,,,,,,,,,,,,,,,,,,,,,,,,,,,,,,,,,,,,,,,,,,,,,,,,,
null,"<div class=""fixation-cross"">+</div>",null,html-keyboard-response,32,365555,0.0-14.0-0.0,luk16yjvn3,Monday at 2:00 PM,"[""https://raw.githubusercontent.com/annapusok731/lookit-stimuli-template/master/test_stimuli/bridget_alexis1.jpg"",""https://raw.githubusercontent.com/annapusok731/lookit-stimuli-template/master/test_stimuli/bridget_bridget1.jpg""]",,,,,,,,,,,,,,,,,,,,,,,,,,,,,,,,,,,,,,,,,,,,,,,,,,,,,,,,,,,,,,,,,,,,,,,,,,,,,,,,,,,,,,
null,"
            <div style=""text-align: center;"">
                <p style=""color: #666; font-size: 20px; margin-top: 10px; "">Trial 7 of 96</p>
                <div class=""face-images"">
                    <img src=""https://raw.githubusercontent.com/annapusok731/composite_face_effect_studies/main/CFE_Adult/misaligned/noah_gavin.jpg"" alt=""Face 1"">
                    <img src=""https://raw.githubusercontent.com/annapusok731/composite_face_effect_studies/main/CFE_Adult/misaligned/gavin_noah.jpg"" alt=""Face 2"">
                </div>
                <h2 class=""trial-question"">Are the top parts of the faces the same or different?</h2>
            </div>
        ",null,html-button-response,33,366571,0.0-14.0-1.0,luk16yjvn3,Monday at 2:00 PM,"[""https://raw.githubusercontent.com/annapusok731/lookit-stimuli-template/master/test_stimuli/bridget_alexis1.jpg"",""https://raw.githubusercontent.com/annapusok731/lookit-stimuli-template/master/test_stimuli/bridget_bridget1.jpg""]",,,,,,main_viewing,7,,,,,https://raw.githubusercontent.com/annapusok731/composite_face_effect_studies/main/CFE_Adult/misaligned/noah_gavin.jpg,https://raw.githubusercontent.com/annapusok731/composite_face_effect_studies/main/CFE_Adult/misaligned/gavin_noah.jpg,,,,,,,,,,,,,,,,,,,,,,,,,,,,,,,,,,,,,,,,,,,,,,,,,,,,,,,,,,,,,,,,,,,,,,,,,
139,"
                        <div style=""text-align: center;"">
                            <p style=""color: #666; font-size: 20px; margin-top: 10px;"">Trial 7 of 96</p>
                            <h2 class=""trial-question"">Are the top parts of the faces the same or different?</h2>
                        </div>
                    ",1,html-button-response,34,366711,0.0-14.0-2.0,luk16yjvn3,Monday at 2:00 PM,"[""https://raw.githubusercontent.com/annapusok731/lookit-stimuli-template/master/test_stimuli/bridget_alexis1.jpg"",""https://raw.githubusercontent.com/annapusok731/lookit-stimuli-template/master/test_stimuli/bridget_bridget1.jpg""]",,,,,,main,7,different,different,TRUE,139,https://raw.githubusercontent.com/annapusok731/composite_face_effect_studies/main/CFE_Adult/misaligned/noah_gavin.jpg,https://raw.githubusercontent.com/annapusok731/composite_face_effect_studies/main/CFE_Adult/misaligned/gavin_noah.jpg,diff_misalign,,,,,,,,,,,,,,,,,,,,,,,,,,,,,,,,,,,,,,,,,,,,,,,,,,,,,,,,,,,,,,,,,,,,,,,,
null,"<div class=""fixation-cross"">+</div>",null,html-keyboard-response,35,367922,0.0-15.0-0.0,luk16yjvn3,Monday at 2:00 PM,"[""https://raw.githubusercontent.com/annapusok731/lookit-stimuli-template/master/test_stimuli/bridget_alexis1.jpg"",""https://raw.githubusercontent.com/annapusok731/lookit-stimuli-template/master/test_stimuli/bridget_bridget1.jpg""]",,,,,,,,,,,,,,,,,,,,,,,,,,,,,,,,,,,,,,,,,,,,,,,,,,,,,,,,,,,,,,,,,,,,,,,,,,,,,,,,,,,,,,
null,"
            <div style=""text-align: center;"">
                <p style=""color: #666; font-size: 20px; margin-top: 10px; "">Trial 8 of 96</p>
                <div class=""face-images"">
                    <img src=""https://raw.githubusercontent.com/annapusok731/composite_face_effect_studies/main/CFE_Adult/misaligned/carpenter_carpenter.jpg"" alt=""Face 1"">
                    <img src=""https://raw.githubusercontent.com/annapusok731/composite_face_effect_studies/main/CFE_Adult/misaligned/carpenter_billy.jpg"" alt=""Face 2"">
                </div>
                <h2 class=""trial-question"">Are the top parts of the faces the same or different?</h2>
            </div>
        ",null,html-button-response,36,368938,0.0-15.0-1.0,luk16yjvn3,Monday at 2:00 PM,"[""https://raw.githubusercontent.com/annapusok731/lookit-stimuli-template/master/test_stimuli/bridget_alexis1.jpg"",""https://raw.githubusercontent.com/annapusok731/lookit-stimuli-template/master/test_stimuli/bridget_bridget1.jpg""]",,,,,,main_viewing,8,,,,,https://raw.githubusercontent.com/annapusok731/composite_face_effect_studies/main/CFE_Adult/misaligned/carpenter_carpenter.jpg,https://raw.githubusercontent.com/annapusok731/composite_face_effect_studies/main/CFE_Adult/misaligned/carpenter_billy.jpg,,,,,,,,,,,,,,,,,,,,,,,,,,,,,,,,,,,,,,,,,,,,,,,,,,,,,,,,,,,,,,,,,,,,,,,,,
null,"
                        <div style=""text-align: center;"">
                            <p style=""color: #666; font-size: 20px; margin-top: 10px;"">Trial 8 of 96</p>
                            <h2 class=""trial-question"">Are the top parts of the faces the same or different?</h2>
                        </div>
                    ",null,html-button-response,37,371954,0.0-15.0-2.0,luk16yjvn3,Monday at 2:00 PM,"[""https://raw.githubusercontent.com/annapusok731/lookit-stimuli-template/master/test_stimuli/bridget_alexis1.jpg"",""https://raw.githubusercontent.com/annapusok731/lookit-stimuli-template/master/test_stimuli/bridget_bridget1.jpg""]",,,,,,main,8,same,different,FALSE,null,https://raw.githubusercontent.com/annapusok731/composite_face_effect_studies/main/CFE_Adult/misaligned/carpenter_carpenter.jpg,https://raw.githubusercontent.com/annapusok731/composite_face_effect_studies/main/CFE_Adult/misaligned/carpenter_billy.jpg,same_misaligned,,,,,,,,,,,,,,,,,,,,,,,,,,,,,,,,,,,,,,,,,,,,,,,,,,,,,,,,,,,,,,,,,,,,,,,,
null,"<div class=""fixation-cross"">+</div>",null,html-keyboard-response,38,373158,0.0-16.0-0.0,luk16yjvn3,Monday at 2:00 PM,"[""https://raw.githubusercontent.com/annapusok731/lookit-stimuli-template/master/test_stimuli/bridget_alexis1.jpg"",""https://raw.githubusercontent.com/annapusok731/lookit-stimuli-template/master/test_stimuli/bridget_bridget1.jpg""]",,,,,,,,,,,,,,,,,,,,,,,,,,,,,,,,,,,,,,,,,,,,,,,,,,,,,,,,,,,,,,,,,,,,,,,,,,,,,,,,,,,,,,
null,"
            <div style=""text-align: center;"">
                <p style=""color: #666; font-size: 20px; margin-top: 10px; "">Trial 9 of 96</p>
                <div class=""face-images"">
                    <img src=""https://raw.githubusercontent.com/annapusok731/composite_face_effect_studies/main/CFE_Adult/aligned/penelope_margaret.jpg"" alt=""Face 1"">
                    <img src=""https://raw.githubusercontent.com/annapusok731/composite_face_effect_studies/main/CFE_Adult/aligned/penelope_penelope.jpg"" alt=""Face 2"">
                </div>
                <h2 class=""trial-question"">Are the top parts of the faces the same or different?</h2>
            </div>
        ",null,html-button-response,39,374168,0.0-16.0-1.0,luk16yjvn3,Monday at 2:00 PM,"[""https://raw.githubusercontent.com/annapusok731/lookit-stimuli-template/master/test_stimuli/bridget_alexis1.jpg"",""https://raw.githubusercontent.com/annapusok731/lookit-stimuli-template/master/test_stimuli/bridget_bridget1.jpg""]",,,,,,main_viewing,9,,,,,https://raw.githubusercontent.com/annapusok731/composite_face_effect_studies/main/CFE_Adult/aligned/penelope_margaret.jpg,https://raw.githubusercontent.com/annapusok731/composite_face_effect_studies/main/CFE_Adult/aligned/penelope_penelope.jpg,,,,,,,,,,,,,,,,,,,,,,,,,,,,,,,,,,,,,,,,,,,,,,,,,,,,,,,,,,,,,,,,,,,,,,,,,
null,"
                        <div style=""text-align: center;"">
                            <p style=""color: #666; font-size: 20px; margin-top: 10px;"">Trial 9 of 96</p>
                            <h2 class=""trial-question"">Are the top parts of the faces the same or different?</h2>
                        </div>
                    ",null,html-button-response,40,377170,0.0-16.0-2.0,luk16yjvn3,Monday at 2:00 PM,"[""https://raw.githubusercontent.com/annapusok731/lookit-stimuli-template/master/test_stimuli/bridget_alexis1.jpg"",""https://raw.githubusercontent.com/annapusok731/lookit-stimuli-template/master/test_stimuli/bridget_bridget1.jpg""]",,,,,,main,9,same,different,FALSE,null,https://raw.githubusercontent.com/annapusok731/composite_face_effect_studies/main/CFE_Adult/aligned/penelope_margaret.jpg,https://raw.githubusercontent.com/annapusok731/composite_face_effect_studies/main/CFE_Adult/aligned/penelope_penelope.jpg,same_aligned,,,,,,,,,,,,,,,,,,,,,,,,,,,,,,,,,,,,,,,,,,,,,,,,,,,,,,,,,,,,,,,,,,,,,,,,
null,"<div class=""fixation-cross"">+</div>",null,html-keyboard-response,41,378384,0.0-17.0-0.0,luk16yjvn3,Monday at 2:00 PM,"[""https://raw.githubusercontent.com/annapusok731/lookit-stimuli-template/master/test_stimuli/bridget_alexis1.jpg"",""https://raw.githubusercontent.com/annapusok731/lookit-stimuli-template/master/test_stimuli/bridget_bridget1.jpg""]",,,,,,,,,,,,,,,,,,,,,,,,,,,,,,,,,,,,,,,,,,,,,,,,,,,,,,,,,,,,,,,,,,,,,,,,,,,,,,,,,,,,,,
null,"
            <div style=""text-align: center;"">
                <p style=""color: #666; font-size: 20px; margin-top: 10px; "">Trial 10 of 96</p>
                <div class=""face-images"">
                    <img src=""https://raw.githubusercontent.com/annapusok731/composite_face_effect_studies/main/CFE_Adult/misaligned/charles_charles.jpg"" alt=""Face 1"">
                    <img src=""https://raw.githubusercontent.com/annapusok731/composite_face_effect_studies/main/CFE_Adult/misaligned/charles_walker.jpg"" alt=""Face 2"">
                </div>
                <h2 class=""trial-question"">Are the top parts of the faces the same or different?</h2>
            </div>
        ",null,html-button-response,42,379386,0.0-17.0-1.0,luk16yjvn3,Monday at 2:00 PM,"[""https://raw.githubusercontent.com/annapusok731/lookit-stimuli-template/master/test_stimuli/bridget_alexis1.jpg"",""https://raw.githubusercontent.com/annapusok731/lookit-stimuli-template/master/test_stimuli/bridget_bridget1.jpg""]",,,,,,main_viewing,10,,,,,https://raw.githubusercontent.com/annapusok731/composite_face_effect_studies/main/CFE_Adult/misaligned/charles_charles.jpg,https://raw.githubusercontent.com/annapusok731/composite_face_effect_studies/main/CFE_Adult/misaligned/charles_walker.jpg,,,,,,,,,,,,,,,,,,,,,,,,,,,,,,,,,,,,,,,,,,,,,,,,,,,,,,,,,,,,,,,,,,,,,,,,,
null,"
                        <div style=""text-align: center;"">
                            <p style=""color: #666; font-size: 20px; margin-top: 10px;"">Trial 10 of 96</p>
                            <h2 class=""trial-question"">Are the top parts of the faces the same or different?</h2>
                        </div>
                    ",null,html-button-response,43,382397,0.0-17.0-2.0,luk16yjvn3,Monday at 2:00 PM,"[""https://raw.githubusercontent.com/annapusok731/lookit-stimuli-template/master/test_stimuli/bridget_alexis1.jpg"",""https://raw.githubusercontent.com/annapusok731/lookit-stimuli-template/master/test_stimuli/bridget_bridget1.jpg""]",,,,,,main,10,same,different,FALSE,null,https://raw.githubusercontent.com/annapusok731/composite_face_effect_studies/main/CFE_Adult/misaligned/charles_charles.jpg,https://raw.githubusercontent.com/annapusok731/composite_face_effect_studies/main/CFE_Adult/misaligned/charles_walker.jpg,same_misaligned,,,,,,,,,,,,,,,,,,,,,,,,,,,,,,,,,,,,,,,,,,,,,,,,,,,,,,,,,,,,,,,,,,,,,,,,
null,"<div class=""fixation-cross"">+</div>",null,html-keyboard-response,44,383607,0.0-18.0-0.0,luk16yjvn3,Monday at 2:00 PM,"[""https://raw.githubusercontent.com/annapusok731/lookit-stimuli-template/master/test_stimuli/bridget_alexis1.jpg"",""https://raw.githubusercontent.com/annapusok731/lookit-stimuli-template/master/test_stimuli/bridget_bridget1.jpg""]",,,,,,,,,,,,,,,,,,,,,,,,,,,,,,,,,,,,,,,,,,,,,,,,,,,,,,,,,,,,,,,,,,,,,,,,,,,,,,,,,,,,,,
null,"
            <div style=""text-align: center;"">
                <p style=""color: #666; font-size: 20px; margin-top: 10px; "">Trial 11 of 96</p>
                <div class=""face-images"">
                    <img src=""https://raw.githubusercontent.com/annapusok731/composite_face_effect_studies/main/CFE_Adult/aligned/skylar_everly.jpg"" alt=""Face 1"">
                    <img src=""https://raw.githubusercontent.com/annapusok731/composite_face_effect_studies/main/CFE_Adult/aligned/everly_skylar.jpg"" alt=""Face 2"">
                </div>
                <h2 class=""trial-question"">Are the top parts of the faces the same or different?</h2>
            </div>
        ",null,html-button-response,45,384615,0.0-18.0-1.0,luk16yjvn3,Monday at 2:00 PM,"[""https://raw.githubusercontent.com/annapusok731/lookit-stimuli-template/master/test_stimuli/bridget_alexis1.jpg"",""https://raw.githubusercontent.com/annapusok731/lookit-stimuli-template/master/test_stimuli/bridget_bridget1.jpg""]",,,,,,main_viewing,11,,,,,https://raw.githubusercontent.com/annapusok731/composite_face_effect_studies/main/CFE_Adult/aligned/skylar_everly.jpg,https://raw.githubusercontent.com/annapusok731/composite_face_effect_studies/main/CFE_Adult/aligned/everly_skylar.jpg,,,,,,,,,,,,,,,,,,,,,,,,,,,,,,,,,,,,,,,,,,,,,,,,,,,,,,,,,,,,,,,,,,,,,,,,,
null,"
                        <div style=""text-align: center;"">
                            <p style=""color: #666; font-size: 20px; margin-top: 10px;"">Trial 11 of 96</p>
                            <h2 class=""trial-question"">Are the top parts of the faces the same or different?</h2>
                        </div>
                    ",null,html-button-response,46,387617,0.0-18.0-2.0,luk16yjvn3,Monday at 2:00 PM,"[""https://raw.githubusercontent.com/annapusok731/lookit-stimuli-template/master/test_stimuli/bridget_alexis1.jpg"",""https://raw.githubusercontent.com/annapusok731/lookit-stimuli-template/master/test_stimuli/bridget_bridget1.jpg""]",,,,,,main,11,different,different,TRUE,null,https://raw.githubusercontent.com/annapusok731/composite_face_effect_studies/main/CFE_Adult/aligned/skylar_everly.jpg,https://raw.githubusercontent.com/annapusok731/composite_face_effect_studies/main/CFE_Adult/aligned/everly_skylar.jpg,diff_align,,,,,,,,,,,,,,,,,,,,,,,,,,,,,,,,,,,,,,,,,,,,,,,,,,,,,,,,,,,,,,,,,,,,,,,,
null,"<div class=""fixation-cross"">+</div>",null,html-keyboard-response,47,388822,0.0-19.0-0.0,luk16yjvn3,Monday at 2:00 PM,"[""https://raw.githubusercontent.com/annapusok731/lookit-stimuli-template/master/test_stimuli/bridget_alexis1.jpg"",""https://raw.githubusercontent.com/annapusok731/lookit-stimuli-template/master/test_stimuli/bridget_bridget1.jpg""]",,,,,,,,,,,,,,,,,,,,,,,,,,,,,,,,,,,,,,,,,,,,,,,,,,,,,,,,,,,,,,,,,,,,,,,,,,,,,,,,,,,,,,
null,"
            <div style=""text-align: center;"">
                <p style=""color: #666; font-size: 20px; margin-top: 10px; "">Trial 12 of 96</p>
                <div class=""face-images"">
                    <img src=""https://raw.githubusercontent.com/annapusok731/composite_face_effect_studies/main/CFE_Adult/aligned/billy_billy.jpg"" alt=""Face 1"">
                    <img src=""https://raw.githubusercontent.com/annapusok731/composite_face_effect_studies/main/CFE_Adult/aligned/billy_carpenter.jpg"" alt=""Face 2"">
                </div>
                <h2 class=""trial-question"">Are the top parts of the faces the same or different?</h2>
            </div>
        ",null,html-button-response,48,389830,0.0-19.0-1.0,luk16yjvn3,Monday at 2:00 PM,"[""https://raw.githubusercontent.com/annapusok731/lookit-stimuli-template/master/test_stimuli/bridget_alexis1.jpg"",""https://raw.githubusercontent.com/annapusok731/lookit-stimuli-template/master/test_stimuli/bridget_bridget1.jpg""]",,,,,,main_viewing,12,,,,,https://raw.githubusercontent.com/annapusok731/composite_face_effect_studies/main/CFE_Adult/aligned/billy_billy.jpg,https://raw.githubusercontent.com/annapusok731/composite_face_effect_studies/main/CFE_Adult/aligned/billy_carpenter.jpg,,,,,,,,,,,,,,,,,,,,,,,,,,,,,,,,,,,,,,,,,,,,,,,,,,,,,,,,,,,,,,,,,,,,,,,,,
null,"
                        <div style=""text-align: center;"">
                            <p style=""color: #666; font-size: 20px; margin-top: 10px;"">Trial 12 of 96</p>
                            <h2 class=""trial-question"">Are the top parts of the faces the same or different?</h2>
                        </div>
                    ",null,html-button-response,49,392838,0.0-19.0-2.0,luk16yjvn3,Monday at 2:00 PM,"[""https://raw.githubusercontent.com/annapusok731/lookit-stimuli-template/master/test_stimuli/bridget_alexis1.jpg"",""https://raw.githubusercontent.com/annapusok731/lookit-stimuli-template/master/test_stimuli/bridget_bridget1.jpg""]",,,,,,main,12,same,different,FALSE,null,https://raw.githubusercontent.com/annapusok731/composite_face_effect_studies/main/CFE_Adult/aligned/billy_billy.jpg,https://raw.githubusercontent.com/annapusok731/composite_face_effect_studies/main/CFE_Adult/aligned/billy_carpenter.jpg,same_aligned,,,,,,,,,,,,,,,,,,,,,,,,,,,,,,,,,,,,,,,,,,,,,,,,,,,,,,,,,,,,,,,,,,,,,,,,
null,"<div class=""fixation-cross"">+</div>",null,html-keyboard-response,50,394051,0.0-20.0-0.0,luk16yjvn3,Monday at 2:00 PM,"[""https://raw.githubusercontent.com/annapusok731/lookit-stimuli-template/master/test_stimuli/bridget_alexis1.jpg"",""https://raw.githubusercontent.com/annapusok731/lookit-stimuli-template/master/test_stimuli/bridget_bridget1.jpg""]",,,,,,,,,,,,,,,,,,,,,,,,,,,,,,,,,,,,,,,,,,,,,,,,,,,,,,,,,,,,,,,,,,,,,,,,,,,,,,,,,,,,,,
null,"
            <div style=""text-align: center;"">
                <p style=""color: #666; font-size: 20px; margin-top: 10px; "">Trial 13 of 96</p>
                <div class=""face-images"">
                    <img src=""https://raw.githubusercontent.com/annapusok731/composite_face_effect_studies/main/CFE_Adult/misaligned/margaret_penelope.jpg"" alt=""Face 1"">
                    <img src=""https://raw.githubusercontent.com/annapusok731/composite_face_effect_studies/main/CFE_Adult/misaligned/margaret_margaret.jpg"" alt=""Face 2"">
                </div>
                <h2 class=""trial-question"">Are the top parts of the faces the same or different?</h2>
            </div>
        ",null,html-button-response,51,395066,0.0-20.0-1.0,luk16yjvn3,Monday at 2:00 PM,"[""https://raw.githubusercontent.com/annapusok731/lookit-stimuli-template/master/test_stimuli/bridget_alexis1.jpg"",""https://raw.githubusercontent.com/annapusok731/lookit-stimuli-template/master/test_stimuli/bridget_bridget1.jpg""]",,,,,,main_viewing,13,,,,,https://raw.githubusercontent.com/annapusok731/composite_face_effect_studies/main/CFE_Adult/misaligned/margaret_penelope.jpg,https://raw.githubusercontent.com/annapusok731/composite_face_effect_studies/main/CFE_Adult/misaligned/margaret_margaret.jpg,,,,,,,,,,,,,,,,,,,,,,,,,,,,,,,,,,,,,,,,,,,,,,,,,,,,,,,,,,,,,,,,,,,,,,,,,
null,"
                        <div style=""text-align: center;"">
                            <p style=""color: #666; font-size: 20px; margin-top: 10px;"">Trial 13 of 96</p>
                            <h2 class=""trial-question"">Are the top parts of the faces the same or different?</h2>
                        </div>
                    ",null,html-button-response,52,398071,0.0-20.0-2.0,luk16yjvn3,Monday at 2:00 PM,"[""https://raw.githubusercontent.com/annapusok731/lookit-stimuli-template/master/test_stimuli/bridget_alexis1.jpg"",""https://raw.githubusercontent.com/annapusok731/lookit-stimuli-template/master/test_stimuli/bridget_bridget1.jpg""]",,,,,,main,13,same,different,FALSE,null,https://raw.githubusercontent.com/annapusok731/composite_face_effect_studies/main/CFE_Adult/misaligned/margaret_penelope.jpg,https://raw.githubusercontent.com/annapusok731/composite_face_effect_studies/main/CFE_Adult/misaligned/margaret_margaret.jpg,same_misaligned,,,,,,,,,,,,,,,,,,,,,,,,,,,,,,,,,,,,,,,,,,,,,,,,,,,,,,,,,,,,,,,,,,,,,,,,
null,"<div class=""fixation-cross"">+</div>",null,html-keyboard-response,53,399284,0.0-21.0-0.0,luk16yjvn3,Monday at 2:00 PM,"[""https://raw.githubusercontent.com/annapusok731/lookit-stimuli-template/master/test_stimuli/bridget_alexis1.jpg"",""https://raw.githubusercontent.com/annapusok731/lookit-stimuli-template/master/test_stimuli/bridget_bridget1.jpg""]",,,,,,,,,,,,,,,,,,,,,,,,,,,,,,,,,,,,,,,,,,,,,,,,,,,,,,,,,,,,,,,,,,,,,,,,,,,,,,,,,,,,,,
null,"
            <div style=""text-align: center;"">
                <p style=""color: #666; font-size: 20px; margin-top: 10px; "">Trial 14 of 96</p>
                <div class=""face-images"">
                    <img src=""https://raw.githubusercontent.com/annapusok731/composite_face_effect_studies/main/CFE_Adult/aligned/ted_james.jpg"" alt=""Face 1"">
                    <img src=""https://raw.githubusercontent.com/annapusok731/composite_face_effect_studies/main/CFE_Adult/aligned/ted_ted.jpg"" alt=""Face 2"">
                </div>
                <h2 class=""trial-question"">Are the top parts of the faces the same or different?</h2>
            </div>
        ",null,html-button-response,54,400301,0.0-21.0-1.0,luk16yjvn3,Monday at 2:00 PM,"[""https://raw.githubusercontent.com/annapusok731/lookit-stimuli-template/master/test_stimuli/bridget_alexis1.jpg"",""https://raw.githubusercontent.com/annapusok731/lookit-stimuli-template/master/test_stimuli/bridget_bridget1.jpg""]",,,,,,main_viewing,14,,,,,https://raw.githubusercontent.com/annapusok731/composite_face_effect_studies/main/CFE_Adult/aligned/ted_james.jpg,https://raw.githubusercontent.com/annapusok731/composite_face_effect_studies/main/CFE_Adult/aligned/ted_ted.jpg,,,,,,,,,,,,,,,,,,,,,,,,,,,,,,,,,,,,,,,,,,,,,,,,,,,,,,,,,,,,,,,,,,,,,,,,,
null,"
                        <div style=""text-align: center;"">
                            <p style=""color: #666; font-size: 20px; margin-top: 10px;"">Trial 14 of 96</p>
                            <h2 class=""trial-question"">Are the top parts of the faces the same or different?</h2>
                        </div>
                    ",null,html-button-response,55,403318,0.0-21.0-2.0,luk16yjvn3,Monday at 2:00 PM,"[""https://raw.githubusercontent.com/annapusok731/lookit-stimuli-template/master/test_stimuli/bridget_alexis1.jpg"",""https://raw.githubusercontent.com/annapusok731/lookit-stimuli-template/master/test_stimuli/bridget_bridget1.jpg""]",,,,,,main,14,same,different,FALSE,null,https://raw.githubusercontent.com/annapusok731/composite_face_effect_studies/main/CFE_Adult/aligned/ted_james.jpg,https://raw.githubusercontent.com/annapusok731/composite_face_effect_studies/main/CFE_Adult/aligned/ted_ted.jpg,same_aligned,,,,,,,,,,,,,,,,,,,,,,,,,,,,,,,,,,,,,,,,,,,,,,,,,,,,,,,,,,,,,,,,,,,,,,,,
null,"<div class=""fixation-cross"">+</div>",null,html-keyboard-response,56,404533,0.0-22.0-0.0,luk16yjvn3,Monday at 2:00 PM,"[""https://raw.githubusercontent.com/annapusok731/lookit-stimuli-template/master/test_stimuli/bridget_alexis1.jpg"",""https://raw.githubusercontent.com/annapusok731/lookit-stimuli-template/master/test_stimuli/bridget_bridget1.jpg""]",,,,,,,,,,,,,,,,,,,,,,,,,,,,,,,,,,,,,,,,,,,,,,,,,,,,,,,,,,,,,,,,,,,,,,,,,,,,,,,,,,,,,,
null,"
            <div style=""text-align: center;"">
                <p style=""color: #666; font-size: 20px; margin-top: 10px; "">Trial 15 of 96</p>
                <div class=""face-images"">
                    <img src=""https://raw.githubusercontent.com/annapusok731/composite_face_effect_studies/main/CFE_Adult/aligned/sierra_sandy.jpg"" alt=""Face 1"">
                    <img src=""https://raw.githubusercontent.com/annapusok731/composite_face_effect_studies/main/CFE_Adult/aligned/sandy_sierra.jpg"" alt=""Face 2"">
                </div>
                <h2 class=""trial-question"">Are the top parts of the faces the same or different?</h2>
            </div>
        ",null,html-button-response,57,405550,0.0-22.0-1.0,luk16yjvn3,Monday at 2:00 PM,"[""https://raw.githubusercontent.com/annapusok731/lookit-stimuli-template/master/test_stimuli/bridget_alexis1.jpg"",""https://raw.githubusercontent.com/annapusok731/lookit-stimuli-template/master/test_stimuli/bridget_bridget1.jpg""]",,,,,,main_viewing,15,,,,,https://raw.githubusercontent.com/annapusok731/composite_face_effect_studies/main/CFE_Adult/aligned/sierra_sandy.jpg,https://raw.githubusercontent.com/annapusok731/composite_face_effect_studies/main/CFE_Adult/aligned/sandy_sierra.jpg,,,,,,,,,,,,,,,,,,,,,,,,,,,,,,,,,,,,,,,,,,,,,,,,,,,,,,,,,,,,,,,,,,,,,,,,,
null,"
                        <div style=""text-align: center;"">
                            <p style=""color: #666; font-size: 20px; margin-top: 10px;"">Trial 15 of 96</p>
                            <h2 class=""trial-question"">Are the top parts of the faces the same or different?</h2>
                        </div>
                    ",null,html-button-response,58,408567,0.0-22.0-2.0,luk16yjvn3,Monday at 2:00 PM,"[""https://raw.githubusercontent.com/annapusok731/lookit-stimuli-template/master/test_stimuli/bridget_alexis1.jpg"",""https://raw.githubusercontent.com/annapusok731/lookit-stimuli-template/master/test_stimuli/bridget_bridget1.jpg""]",,,,,,main,15,different,different,TRUE,null,https://raw.githubusercontent.com/annapusok731/composite_face_effect_studies/main/CFE_Adult/aligned/sierra_sandy.jpg,https://raw.githubusercontent.com/annapusok731/composite_face_effect_studies/main/CFE_Adult/aligned/sandy_sierra.jpg,diff_align,,,,,,,,,,,,,,,,,,,,,,,,,,,,,,,,,,,,,,,,,,,,,,,,,,,,,,,,,,,,,,,,,,,,,,,,
null,"<div class=""fixation-cross"">+</div>",null,html-keyboard-response,59,409780,0.0-23.0-0.0,luk16yjvn3,Monday at 2:00 PM,"[""https://raw.githubusercontent.com/annapusok731/lookit-stimuli-template/master/test_stimuli/bridget_alexis1.jpg"",""https://raw.githubusercontent.com/annapusok731/lookit-stimuli-template/master/test_stimuli/bridget_bridget1.jpg""]",,,,,,,,,,,,,,,,,,,,,,,,,,,,,,,,,,,,,,,,,,,,,,,,,,,,,,,,,,,,,,,,,,,,,,,,,,,,,,,,,,,,,,
null,"
            <div style=""text-align: center;"">
                <p style=""color: #666; font-size: 20px; margin-top: 10px; "">Trial 16 of 96</p>
                <div class=""face-images"">
                    <img src=""https://raw.githubusercontent.com/annapusok731/composite_face_effect_studies/main/CFE_Adult/aligned/wesley_wesley.jpg"" alt=""Face 1"">
                    <img src=""https://raw.githubusercontent.com/annapusok731/composite_face_effect_studies/main/CFE_Adult/aligned/wesley_wendall.jpg"" alt=""Face 2"">
                </div>
                <h2 class=""trial-question"">Are the top parts of the faces the same or different?</h2>
            </div>
        ",null,html-button-response,60,410797,0.0-23.0-1.0,luk16yjvn3,Monday at 2:00 PM,"[""https://raw.githubusercontent.com/annapusok731/lookit-stimuli-template/master/test_stimuli/bridget_alexis1.jpg"",""https://raw.githubusercontent.com/annapusok731/lookit-stimuli-template/master/test_stimuli/bridget_bridget1.jpg""]",,,,,,main_viewing,16,,,,,https://raw.githubusercontent.com/annapusok731/composite_face_effect_studies/main/CFE_Adult/aligned/wesley_wesley.jpg,https://raw.githubusercontent.com/annapusok731/composite_face_effect_studies/main/CFE_Adult/aligned/wesley_wendall.jpg,,,,,,,,,,,,,,,,,,,,,,,,,,,,,,,,,,,,,,,,,,,,,,,,,,,,,,,,,,,,,,,,,,,,,,,,,
null,"
                        <div style=""text-align: center;"">
                            <p style=""color: #666; font-size: 20px; margin-top: 10px;"">Trial 16 of 96</p>
                            <h2 class=""trial-question"">Are the top parts of the faces the same or different?</h2>
                        </div>
                    ",null,html-button-response,61,413814,0.0-23.0-2.0,luk16yjvn3,Monday at 2:00 PM,"[""https://raw.githubusercontent.com/annapusok731/lookit-stimuli-template/master/test_stimuli/bridget_alexis1.jpg"",""https://raw.githubusercontent.com/annapusok731/lookit-stimuli-template/master/test_stimuli/bridget_bridget1.jpg""]",,,,,,main,16,same,different,FALSE,null,https://raw.githubusercontent.com/annapusok731/composite_face_effect_studies/main/CFE_Adult/aligned/wesley_wesley.jpg,https://raw.githubusercontent.com/annapusok731/composite_face_effect_studies/main/CFE_Adult/aligned/wesley_wendall.jpg,same_aligned,,,,,,,,,,,,,,,,,,,,,,,,,,,,,,,,,,,,,,,,,,,,,,,,,,,,,,,,,,,,,,,,,,,,,,,,
null,"<div class=""fixation-cross"">+</div>",null,html-keyboard-response,62,415016,0.0-24.0-0.0,luk16yjvn3,Monday at 2:00 PM,"[""https://raw.githubusercontent.com/annapusok731/lookit-stimuli-template/master/test_stimuli/bridget_alexis1.jpg"",""https://raw.githubusercontent.com/annapusok731/lookit-stimuli-template/master/test_stimuli/bridget_bridget1.jpg""]",,,,,,,,,,,,,,,,,,,,,,,,,,,,,,,,,,,,,,,,,,,,,,,,,,,,,,,,,,,,,,,,,,,,,,,,,,,,,,,,,,,,,,
null,"
            <div style=""text-align: center;"">
                <p style=""color: #666; font-size: 20px; margin-top: 10px; "">Trial 17 of 96</p>
                <div class=""face-images"">
                    <img src=""https://raw.githubusercontent.com/annapusok731/composite_face_effect_studies/main/CFE_Adult/aligned/tess_mary.jpg"" alt=""Face 1"">
                    <img src=""https://raw.githubusercontent.com/annapusok731/composite_face_effect_studies/main/CFE_Adult/aligned/tess_tess.jpg"" alt=""Face 2"">
                </div>
                <h2 class=""trial-question"">Are the top parts of the faces the same or different?</h2>
            </div>
        ",null,html-button-response,63,416019,0.0-24.0-1.0,luk16yjvn3,Monday at 2:00 PM,"[""https://raw.githubusercontent.com/annapusok731/lookit-stimuli-template/master/test_stimuli/bridget_alexis1.jpg"",""https://raw.githubusercontent.com/annapusok731/lookit-stimuli-template/master/test_stimuli/bridget_bridget1.jpg""]",,,,,,main_viewing,17,,,,,https://raw.githubusercontent.com/annapusok731/composite_face_effect_studies/main/CFE_Adult/aligned/tess_mary.jpg,https://raw.githubusercontent.com/annapusok731/composite_face_effect_studies/main/CFE_Adult/aligned/tess_tess.jpg,,,,,,,,,,,,,,,,,,,,,,,,,,,,,,,,,,,,,,,,,,,,,,,,,,,,,,,,,,,,,,,,,,,,,,,,,
1267,"
                        <div style=""text-align: center;"">
                            <p style=""color: #666; font-size: 20px; margin-top: 10px;"">Trial 17 of 96</p>
                            <h2 class=""trial-question"">Are the top parts of the faces the same or different?</h2>
                        </div>
                    ",1,html-button-response,64,417287,0.0-24.0-2.0,luk16yjvn3,Monday at 2:00 PM,"[""https://raw.githubusercontent.com/annapusok731/lookit-stimuli-template/master/test_stimuli/bridget_alexis1.jpg"",""https://raw.githubusercontent.com/annapusok731/lookit-stimuli-template/master/test_stimuli/bridget_bridget1.jpg""]",,,,,,main,17,same,different,FALSE,1267,https://raw.githubusercontent.com/annapusok731/composite_face_effect_studies/main/CFE_Adult/aligned/tess_mary.jpg,https://raw.githubusercontent.com/annapusok731/composite_face_effect_studies/main/CFE_Adult/aligned/tess_tess.jpg,same_aligned,,,,,,,,,,,,,,,,,,,,,,,,,,,,,,,,,,,,,,,,,,,,,,,,,,,,,,,,,,,,,,,,,,,,,,,,
null,"<div class=""fixation-cross"">+</div>",null,html-keyboard-response,65,418497,0.0-25.0-0.0,luk16yjvn3,Monday at 2:00 PM,"[""https://raw.githubusercontent.com/annapusok731/lookit-stimuli-template/master/test_stimuli/bridget_alexis1.jpg"",""https://raw.githubusercontent.com/annapusok731/lookit-stimuli-template/master/test_stimuli/bridget_bridget1.jpg""]",,,,,,,,,,,,,,,,,,,,,,,,,,,,,,,,,,,,,,,,,,,,,,,,,,,,,,,,,,,,,,,,,,,,,,,,,,,,,,,,,,,,,,
null,"
            <div style=""text-align: center;"">
                <p style=""color: #666; font-size: 20px; margin-top: 10px; "">Trial 18 of 96</p>
                <div class=""face-images"">
                    <img src=""https://raw.githubusercontent.com/annapusok731/composite_face_effect_studies/main/CFE_Adult/misaligned/greg_griffin.jpg"" alt=""Face 1"">
                    <img src=""https://raw.githubusercontent.com/annapusok731/composite_face_effect_studies/main/CFE_Adult/misaligned/greg_greg.jpg"" alt=""Face 2"">
                </div>
                <h2 class=""trial-question"">Are the top parts of the faces the same or different?</h2>
            </div>
        ",null,html-button-response,66,419502,0.0-25.0-1.0,luk16yjvn3,Monday at 2:00 PM,"[""https://raw.githubusercontent.com/annapusok731/lookit-stimuli-template/master/test_stimuli/bridget_alexis1.jpg"",""https://raw.githubusercontent.com/annapusok731/lookit-stimuli-template/master/test_stimuli/bridget_bridget1.jpg""]",,,,,,main_viewing,18,,,,,https://raw.githubusercontent.com/annapusok731/composite_face_effect_studies/main/CFE_Adult/misaligned/greg_griffin.jpg,https://raw.githubusercontent.com/annapusok731/composite_face_effect_studies/main/CFE_Adult/misaligned/greg_greg.jpg,,,,,,,,,,,,,,,,,,,,,,,,,,,,,,,,,,,,,,,,,,,,,,,,,,,,,,,,,,,,,,,,,,,,,,,,,
778,"
                        <div style=""text-align: center;"">
                            <p style=""color: #666; font-size: 20px; margin-top: 10px;"">Trial 18 of 96</p>
                            <h2 class=""trial-question"">Are the top parts of the faces the same or different?</h2>
                        </div>
                    ",1,html-button-response,67,420280,0.0-25.0-2.0,luk16yjvn3,Monday at 2:00 PM,"[""https://raw.githubusercontent.com/annapusok731/lookit-stimuli-template/master/test_stimuli/bridget_alexis1.jpg"",""https://raw.githubusercontent.com/annapusok731/lookit-stimuli-template/master/test_stimuli/bridget_bridget1.jpg""]",,,,,,main,18,same,different,FALSE,778,https://raw.githubusercontent.com/annapusok731/composite_face_effect_studies/main/CFE_Adult/misaligned/greg_griffin.jpg,https://raw.githubusercontent.com/annapusok731/composite_face_effect_studies/main/CFE_Adult/misaligned/greg_greg.jpg,same_misaligned,,,,,,,,,,,,,,,,,,,,,,,,,,,,,,,,,,,,,,,,,,,,,,,,,,,,,,,,,,,,,,,,,,,,,,,,
null,"<div class=""fixation-cross"">+</div>",null,html-keyboard-response,68,421497,0.0-26.0-0.0,luk16yjvn3,Monday at 2:00 PM,"[""https://raw.githubusercontent.com/annapusok731/lookit-stimuli-template/master/test_stimuli/bridget_alexis1.jpg"",""https://raw.githubusercontent.com/annapusok731/lookit-stimuli-template/master/test_stimuli/bridget_bridget1.jpg""]",,,,,,,,,,,,,,,,,,,,,,,,,,,,,,,,,,,,,,,,,,,,,,,,,,,,,,,,,,,,,,,,,,,,,,,,,,,,,,,,,,,,,,
null,"
            <div style=""text-align: center;"">
                <p style=""color: #666; font-size: 20px; margin-top: 10px; "">Trial 19 of 96</p>
                <div class=""face-images"">
                    <img src=""https://raw.githubusercontent.com/annapusok731/composite_face_effect_studies/main/CFE_Adult/aligned/zack_cody.jpg"" alt=""Face 1"">
                    <img src=""https://raw.githubusercontent.com/annapusok731/composite_face_effect_studies/main/CFE_Adult/aligned/cody_zack.jpg"" alt=""Face 2"">
                </div>
                <h2 class=""trial-question"">Are the top parts of the faces the same or different?</h2>
            </div>
        ",null,html-button-response,69,422514,0.0-26.0-1.0,luk16yjvn3,Monday at 2:00 PM,"[""https://raw.githubusercontent.com/annapusok731/lookit-stimuli-template/master/test_stimuli/bridget_alexis1.jpg"",""https://raw.githubusercontent.com/annapusok731/lookit-stimuli-template/master/test_stimuli/bridget_bridget1.jpg""]",,,,,,main_viewing,19,,,,,https://raw.githubusercontent.com/annapusok731/composite_face_effect_studies/main/CFE_Adult/aligned/zack_cody.jpg,https://raw.githubusercontent.com/annapusok731/composite_face_effect_studies/main/CFE_Adult/aligned/cody_zack.jpg,,,,,,,,,,,,,,,,,,,,,,,,,,,,,,,,,,,,,,,,,,,,,,,,,,,,,,,,,,,,,,,,,,,,,,,,,
437,"
                        <div style=""text-align: center;"">
                            <p style=""color: #666; font-size: 20px; margin-top: 10px;"">Trial 19 of 96</p>
                            <h2 class=""trial-question"">Are the top parts of the faces the same or different?</h2>
                        </div>
                    ",1,html-button-response,70,422953,0.0-26.0-2.0,luk16yjvn3,Monday at 2:00 PM,"[""https://raw.githubusercontent.com/annapusok731/lookit-stimuli-template/master/test_stimuli/bridget_alexis1.jpg"",""https://raw.githubusercontent.com/annapusok731/lookit-stimuli-template/master/test_stimuli/bridget_bridget1.jpg""]",,,,,,main,19,different,different,TRUE,437,https://raw.githubusercontent.com/annapusok731/composite_face_effect_studies/main/CFE_Adult/aligned/zack_cody.jpg,https://raw.githubusercontent.com/annapusok731/composite_face_effect_studies/main/CFE_Adult/aligned/cody_zack.jpg,diff_align,,,,,,,,,,,,,,,,,,,,,,,,,,,,,,,,,,,,,,,,,,,,,,,,,,,,,,,,,,,,,,,,,,,,,,,,
null,"<div class=""fixation-cross"">+</div>",null,html-keyboard-response,71,424153,0.0-27.0-0.0,luk16yjvn3,Monday at 2:00 PM,"[""https://raw.githubusercontent.com/annapusok731/lookit-stimuli-template/master/test_stimuli/bridget_alexis1.jpg"",""https://raw.githubusercontent.com/annapusok731/lookit-stimuli-template/master/test_stimuli/bridget_bridget1.jpg""]",,,,,,,,,,,,,,,,,,,,,,,,,,,,,,,,,,,,,,,,,,,,,,,,,,,,,,,,,,,,,,,,,,,,,,,,,,,,,,,,,,,,,,
null,"
            <div style=""text-align: center;"">
                <p style=""color: #666; font-size: 20px; margin-top: 10px; "">Trial 20 of 96</p>
                <div class=""face-images"">
                    <img src=""https://raw.githubusercontent.com/annapusok731/composite_face_effect_studies/main/CFE_Adult/aligned/hank_martin.jpg"" alt=""Face 1"">
                    <img src=""https://raw.githubusercontent.com/annapusok731/composite_face_effect_studies/main/CFE_Adult/aligned/martin_hank.jpg"" alt=""Face 2"">
                </div>
                <h2 class=""trial-question"">Are the top parts of the faces the same or different?</h2>
            </div>
        ",null,html-button-response,72,425163,0.0-27.0-1.0,luk16yjvn3,Monday at 2:00 PM,"[""https://raw.githubusercontent.com/annapusok731/lookit-stimuli-template/master/test_stimuli/bridget_alexis1.jpg"",""https://raw.githubusercontent.com/annapusok731/lookit-stimuli-template/master/test_stimuli/bridget_bridget1.jpg""]",,,,,,main_viewing,20,,,,,https://raw.githubusercontent.com/annapusok731/composite_face_effect_studies/main/CFE_Adult/aligned/hank_martin.jpg,https://raw.githubusercontent.com/annapusok731/composite_face_effect_studies/main/CFE_Adult/aligned/martin_hank.jpg,,,,,,,,,,,,,,,,,,,,,,,,,,,,,,,,,,,,,,,,,,,,,,,,,,,,,,,,,,,,,,,,,,,,,,,,,
315,"
                        <div style=""text-align: center;"">
                            <p style=""color: #666; font-size: 20px; margin-top: 10px;"">Trial 20 of 96</p>
                            <h2 class=""trial-question"">Are the top parts of the faces the same or different?</h2>
                        </div>
                    ",1,html-button-response,73,425479,0.0-27.0-2.0,luk16yjvn3,Monday at 2:00 PM,"[""https://raw.githubusercontent.com/annapusok731/lookit-stimuli-template/master/test_stimuli/bridget_alexis1.jpg"",""https://raw.githubusercontent.com/annapusok731/lookit-stimuli-template/master/test_stimuli/bridget_bridget1.jpg""]",,,,,,main,20,different,different,TRUE,315,https://raw.githubusercontent.com/annapusok731/composite_face_effect_studies/main/CFE_Adult/aligned/hank_martin.jpg,https://raw.githubusercontent.com/annapusok731/composite_face_effect_studies/main/CFE_Adult/aligned/martin_hank.jpg,diff_align,,,,,,,,,,,,,,,,,,,,,,,,,,,,,,,,,,,,,,,,,,,,,,,,,,,,,,,,,,,,,,,,,,,,,,,,
null,"<div class=""fixation-cross"">+</div>",null,html-keyboard-response,74,426682,0.0-28.0-0.0,luk16yjvn3,Monday at 2:00 PM,"[""https://raw.githubusercontent.com/annapusok731/lookit-stimuli-template/master/test_stimuli/bridget_alexis1.jpg"",""https://raw.githubusercontent.com/annapusok731/lookit-stimuli-template/master/test_stimuli/bridget_bridget1.jpg""]",,,,,,,,,,,,,,,,,,,,,,,,,,,,,,,,,,,,,,,,,,,,,,,,,,,,,,,,,,,,,,,,,,,,,,,,,,,,,,,,,,,,,,
null,"
            <div style=""text-align: center;"">
                <p style=""color: #666; font-size: 20px; margin-top: 10px; "">Trial 21 of 96</p>
                <div class=""face-images"">
                    <img src=""https://raw.githubusercontent.com/annapusok731/composite_face_effect_studies/main/CFE_Adult/misaligned/dolly_laura.jpg"" alt=""Face 1"">
                    <img src=""https://raw.githubusercontent.com/annapusok731/composite_face_effect_studies/main/CFE_Adult/misaligned/laura_dolly.jpg"" alt=""Face 2"">
                </div>
                <h2 class=""trial-question"">Are the top parts of the faces the same or different?</h2>
            </div>
        ",null,html-button-response,75,427685,0.0-28.0-1.0,luk16yjvn3,Monday at 2:00 PM,"[""https://raw.githubusercontent.com/annapusok731/lookit-stimuli-template/master/test_stimuli/bridget_alexis1.jpg"",""https://raw.githubusercontent.com/annapusok731/lookit-stimuli-template/master/test_stimuli/bridget_bridget1.jpg""]",,,,,,main_viewing,21,,,,,https://raw.githubusercontent.com/annapusok731/composite_face_effect_studies/main/CFE_Adult/misaligned/dolly_laura.jpg,https://raw.githubusercontent.com/annapusok731/composite_face_effect_studies/main/CFE_Adult/misaligned/laura_dolly.jpg,,,,,,,,,,,,,,,,,,,,,,,,,,,,,,,,,,,,,,,,,,,,,,,,,,,,,,,,,,,,,,,,,,,,,,,,,
557,"
                        <div style=""text-align: center;"">
                            <p style=""color: #666; font-size: 20px; margin-top: 10px;"">Trial 21 of 96</p>
                            <h2 class=""trial-question"">Are the top parts of the faces the same or different?</h2>
                        </div>
                    ",1,html-button-response,76,428243,0.0-28.0-2.0,luk16yjvn3,Monday at 2:00 PM,"[""https://raw.githubusercontent.com/annapusok731/lookit-stimuli-template/master/test_stimuli/bridget_alexis1.jpg"",""https://raw.githubusercontent.com/annapusok731/lookit-stimuli-template/master/test_stimuli/bridget_bridget1.jpg""]",,,,,,main,21,different,different,TRUE,557,https://raw.githubusercontent.com/annapusok731/composite_face_effect_studies/main/CFE_Adult/misaligned/dolly_laura.jpg,https://raw.githubusercontent.com/annapusok731/composite_face_effect_studies/main/CFE_Adult/misaligned/laura_dolly.jpg,diff_misalign,,,,,,,,,,,,,,,,,,,,,,,,,,,,,,,,,,,,,,,,,,,,,,,,,,,,,,,,,,,,,,,,,,,,,,,,
null,"<div class=""fixation-cross"">+</div>",null,html-keyboard-response,77,429451,0.0-29.0-0.0,luk16yjvn3,Monday at 2:00 PM,"[""https://raw.githubusercontent.com/annapusok731/lookit-stimuli-template/master/test_stimuli/bridget_alexis1.jpg"",""https://raw.githubusercontent.com/annapusok731/lookit-stimuli-template/master/test_stimuli/bridget_bridget1.jpg""]",,,,,,,,,,,,,,,,,,,,,,,,,,,,,,,,,,,,,,,,,,,,,,,,,,,,,,,,,,,,,,,,,,,,,,,,,,,,,,,,,,,,,,
null,"
            <div style=""text-align: center;"">
                <p style=""color: #666; font-size: 20px; margin-top: 10px; "">Trial 22 of 96</p>
                <div class=""face-images"">
                    <img src=""https://raw.githubusercontent.com/annapusok731/composite_face_effect_studies/main/CFE_Adult/aligned/hector_gable.jpg"" alt=""Face 1"">
                    <img src=""https://raw.githubusercontent.com/annapusok731/composite_face_effect_studies/main/CFE_Adult/aligned/hector_hector.jpg"" alt=""Face 2"">
                </div>
                <h2 class=""trial-question"">Are the top parts of the faces the same or different?</h2>
            </div>
        ",null,html-button-response,78,430463,0.0-29.0-1.0,luk16yjvn3,Monday at 2:00 PM,"[""https://raw.githubusercontent.com/annapusok731/lookit-stimuli-template/master/test_stimuli/bridget_alexis1.jpg"",""https://raw.githubusercontent.com/annapusok731/lookit-stimuli-template/master/test_stimuli/bridget_bridget1.jpg""]",,,,,,main_viewing,22,,,,,https://raw.githubusercontent.com/annapusok731/composite_face_effect_studies/main/CFE_Adult/aligned/hector_gable.jpg,https://raw.githubusercontent.com/annapusok731/composite_face_effect_studies/main/CFE_Adult/aligned/hector_hector.jpg,,,,,,,,,,,,,,,,,,,,,,,,,,,,,,,,,,,,,,,,,,,,,,,,,,,,,,,,,,,,,,,,,,,,,,,,,
164,"
                        <div style=""text-align: center;"">
                            <p style=""color: #666; font-size: 20px; margin-top: 10px;"">Trial 22 of 96</p>
                            <h2 class=""trial-question"">Are the top parts of the faces the same or different?</h2>
                        </div>
                    ",1,html-button-response,79,430627,0.0-29.0-2.0,luk16yjvn3,Monday at 2:00 PM,"[""https://raw.githubusercontent.com/annapusok731/lookit-stimuli-template/master/test_stimuli/bridget_alexis1.jpg"",""https://raw.githubusercontent.com/annapusok731/lookit-stimuli-template/master/test_stimuli/bridget_bridget1.jpg""]",,,,,,main,22,same,different,FALSE,164,https://raw.githubusercontent.com/annapusok731/composite_face_effect_studies/main/CFE_Adult/aligned/hector_gable.jpg,https://raw.githubusercontent.com/annapusok731/composite_face_effect_studies/main/CFE_Adult/aligned/hector_hector.jpg,same_aligned,,,,,,,,,,,,,,,,,,,,,,,,,,,,,,,,,,,,,,,,,,,,,,,,,,,,,,,,,,,,,,,,,,,,,,,,
null,"<div class=""fixation-cross"">+</div>",null,html-keyboard-response,80,431834,0.0-30.0-0.0,luk16yjvn3,Monday at 2:00 PM,"[""https://raw.githubusercontent.com/annapusok731/lookit-stimuli-template/master/test_stimuli/bridget_alexis1.jpg"",""https://raw.githubusercontent.com/annapusok731/lookit-stimuli-template/master/test_stimuli/bridget_bridget1.jpg""]",,,,,,,,,,,,,,,,,,,,,,,,,,,,,,,,,,,,,,,,,,,,,,,,,,,,,,,,,,,,,,,,,,,,,,,,,,,,,,,,,,,,,,
null,"
            <div style=""text-align: center;"">
                <p style=""color: #666; font-size: 20px; margin-top: 10px; "">Trial 23 of 96</p>
                <div class=""face-images"">
                    <img src=""https://raw.githubusercontent.com/annapusok731/composite_face_effect_studies/main/CFE_Adult/aligned/elsa_sharon.jpg"" alt=""Face 1"">
                    <img src=""https://raw.githubusercontent.com/annapusok731/composite_face_effect_studies/main/CFE_Adult/aligned/elsa_elsa.jpg"" alt=""Face 2"">
                </div>
                <h2 class=""trial-question"">Are the top parts of the faces the same or different?</h2>
            </div>
        ",null,html-button-response,81,432846,0.0-30.0-1.0,luk16yjvn3,Monday at 2:00 PM,"[""https://raw.githubusercontent.com/annapusok731/lookit-stimuli-template/master/test_stimuli/bridget_alexis1.jpg"",""https://raw.githubusercontent.com/annapusok731/lookit-stimuli-template/master/test_stimuli/bridget_bridget1.jpg""]",,,,,,main_viewing,23,,,,,https://raw.githubusercontent.com/annapusok731/composite_face_effect_studies/main/CFE_Adult/aligned/elsa_sharon.jpg,https://raw.githubusercontent.com/annapusok731/composite_face_effect_studies/main/CFE_Adult/aligned/elsa_elsa.jpg,,,,,,,,,,,,,,,,,,,,,,,,,,,,,,,,,,,,,,,,,,,,,,,,,,,,,,,,,,,,,,,,,,,,,,,,,
591,"
                        <div style=""text-align: center;"">
                            <p style=""color: #666; font-size: 20px; margin-top: 10px;"">Trial 23 of 96</p>
                            <h2 class=""trial-question"">Are the top parts of the faces the same or different?</h2>
                        </div>
                    ",1,html-button-response,82,433439,0.0-30.0-2.0,luk16yjvn3,Monday at 2:00 PM,"[""https://raw.githubusercontent.com/annapusok731/lookit-stimuli-template/master/test_stimuli/bridget_alexis1.jpg"",""https://raw.githubusercontent.com/annapusok731/lookit-stimuli-template/master/test_stimuli/bridget_bridget1.jpg""]",,,,,,main,23,same,different,FALSE,591,https://raw.githubusercontent.com/annapusok731/composite_face_effect_studies/main/CFE_Adult/aligned/elsa_sharon.jpg,https://raw.githubusercontent.com/annapusok731/composite_face_effect_studies/main/CFE_Adult/aligned/elsa_elsa.jpg,same_aligned,,,,,,,,,,,,,,,,,,,,,,,,,,,,,,,,,,,,,,,,,,,,,,,,,,,,,,,,,,,,,,,,,,,,,,,,
null,"<div class=""fixation-cross"">+</div>",null,html-keyboard-response,83,434642,0.0-31.0-0.0,luk16yjvn3,Monday at 2:00 PM,"[""https://raw.githubusercontent.com/annapusok731/lookit-stimuli-template/master/test_stimuli/bridget_alexis1.jpg"",""https://raw.githubusercontent.com/annapusok731/lookit-stimuli-template/master/test_stimuli/bridget_bridget1.jpg""]",,,,,,,,,,,,,,,,,,,,,,,,,,,,,,,,,,,,,,,,,,,,,,,,,,,,,,,,,,,,,,,,,,,,,,,,,,,,,,,,,,,,,,
null,"
            <div style=""text-align: center;"">
                <p style=""color: #666; font-size: 20px; margin-top: 10px; "">Trial 24 of 96</p>
                <div class=""face-images"">
                    <img src=""https://raw.githubusercontent.com/annapusok731/composite_face_effect_studies/main/CFE_Adult/aligned/lucy_lucy.jpg"" alt=""Face 1"">
                    <img src=""https://raw.githubusercontent.com/annapusok731/composite_face_effect_studies/main/CFE_Adult/aligned/lucy_sadie.jpg"" alt=""Face 2"">
                </div>
                <h2 class=""trial-question"">Are the top parts of the faces the same or different?</h2>
            </div>
        ",null,html-button-response,84,435654,0.0-31.0-1.0,luk16yjvn3,Monday at 2:00 PM,"[""https://raw.githubusercontent.com/annapusok731/lookit-stimuli-template/master/test_stimuli/bridget_alexis1.jpg"",""https://raw.githubusercontent.com/annapusok731/lookit-stimuli-template/master/test_stimuli/bridget_bridget1.jpg""]",,,,,,main_viewing,24,,,,,https://raw.githubusercontent.com/annapusok731/composite_face_effect_studies/main/CFE_Adult/aligned/lucy_lucy.jpg,https://raw.githubusercontent.com/annapusok731/composite_face_effect_studies/main/CFE_Adult/aligned/lucy_sadie.jpg,,,,,,,,,,,,,,,,,,,,,,,,,,,,,,,,,,,,,,,,,,,,,,,,,,,,,,,,,,,,,,,,,,,,,,,,,
401,"
                        <div style=""text-align: center;"">
                            <p style=""color: #666; font-size: 20px; margin-top: 10px;"">Trial 24 of 96</p>
                            <h2 class=""trial-question"">Are the top parts of the faces the same or different?</h2>
                        </div>
                    ",1,html-button-response,85,436056,0.0-31.0-2.0,luk16yjvn3,Monday at 2:00 PM,"[""https://raw.githubusercontent.com/annapusok731/lookit-stimuli-template/master/test_stimuli/bridget_alexis1.jpg"",""https://raw.githubusercontent.com/annapusok731/lookit-stimuli-template/master/test_stimuli/bridget_bridget1.jpg""]",,,,,,main,24,same,different,FALSE,401,https://raw.githubusercontent.com/annapusok731/composite_face_effect_studies/main/CFE_Adult/aligned/lucy_lucy.jpg,https://raw.githubusercontent.com/annapusok731/composite_face_effect_studies/main/CFE_Adult/aligned/lucy_sadie.jpg,same_aligned,,,,,,,,,,,,,,,,,,,,,,,,,,,,,,,,,,,,,,,,,,,,,,,,,,,,,,,,,,,,,,,,,,,,,,,,
null,"<div class=""fixation-cross"">+</div>",null,html-keyboard-response,86,437265,0.0-32.0-0.0,luk16yjvn3,Monday at 2:00 PM,"[""https://raw.githubusercontent.com/annapusok731/lookit-stimuli-template/master/test_stimuli/bridget_alexis1.jpg"",""https://raw.githubusercontent.com/annapusok731/lookit-stimuli-template/master/test_stimuli/bridget_bridget1.jpg""]",,,,,,,,,,,,,,,,,,,,,,,,,,,,,,,,,,,,,,,,,,,,,,,,,,,,,,,,,,,,,,,,,,,,,,,,,,,,,,,,,,,,,,
null,"
            <div style=""text-align: center;"">
                <p style=""color: #666; font-size: 20px; margin-top: 10px; "">Trial 25 of 96</p>
                <div class=""face-images"">
                    <img src=""https://raw.githubusercontent.com/annapusok731/composite_face_effect_studies/main/CFE_Adult/aligned/kelly_mimi.jpg"" alt=""Face 1"">
                    <img src=""https://raw.githubusercontent.com/annapusok731/composite_face_effect_studies/main/CFE_Adult/aligned/mimi_kelly.jpg"" alt=""Face 2"">
                </div>
                <h2 class=""trial-question"">Are the top parts of the faces the same or different?</h2>
            </div>
        ",null,html-button-response,87,438279,0.0-32.0-1.0,luk16yjvn3,Monday at 2:00 PM,"[""https://raw.githubusercontent.com/annapusok731/lookit-stimuli-template/master/test_stimuli/bridget_alexis1.jpg"",""https://raw.githubusercontent.com/annapusok731/lookit-stimuli-template/master/test_stimuli/bridget_bridget1.jpg""]",,,,,,main_viewing,25,,,,,https://raw.githubusercontent.com/annapusok731/composite_face_effect_studies/main/CFE_Adult/aligned/kelly_mimi.jpg,https://raw.githubusercontent.com/annapusok731/composite_face_effect_studies/main/CFE_Adult/aligned/mimi_kelly.jpg,,,,,,,,,,,,,,,,,,,,,,,,,,,,,,,,,,,,,,,,,,,,,,,,,,,,,,,,,,,,,,,,,,,,,,,,,
180,"
                        <div style=""text-align: center;"">
                            <p style=""color: #666; font-size: 20px; margin-top: 10px;"">Trial 25 of 96</p>
                            <h2 class=""trial-question"">Are the top parts of the faces the same or different?</h2>
                        </div>
                    ",1,html-button-response,88,438460,0.0-32.0-2.0,luk16yjvn3,Monday at 2:00 PM,"[""https://raw.githubusercontent.com/annapusok731/lookit-stimuli-template/master/test_stimuli/bridget_alexis1.jpg"",""https://raw.githubusercontent.com/annapusok731/lookit-stimuli-template/master/test_stimuli/bridget_bridget1.jpg""]",,,,,,main,25,different,different,TRUE,180,https://raw.githubusercontent.com/annapusok731/composite_face_effect_studies/main/CFE_Adult/aligned/kelly_mimi.jpg,https://raw.githubusercontent.com/annapusok731/composite_face_effect_studies/main/CFE_Adult/aligned/mimi_kelly.jpg,diff_align,,,,,,,,,,,,,,,,,,,,,,,,,,,,,,,,,,,,,,,,,,,,,,,,,,,,,,,,,,,,,,,,,,,,,,,,
null,"<div class=""fixation-cross"">+</div>",null,html-keyboard-response,89,439661,0.0-33.0-0.0,luk16yjvn3,Monday at 2:00 PM,"[""https://raw.githubusercontent.com/annapusok731/lookit-stimuli-template/master/test_stimuli/bridget_alexis1.jpg"",""https://raw.githubusercontent.com/annapusok731/lookit-stimuli-template/master/test_stimuli/bridget_bridget1.jpg""]",,,,,,,,,,,,,,,,,,,,,,,,,,,,,,,,,,,,,,,,,,,,,,,,,,,,,,,,,,,,,,,,,,,,,,,,,,,,,,,,,,,,,,
null,"
            <div style=""text-align: center;"">
                <p style=""color: #666; font-size: 20px; margin-top: 10px; "">Trial 26 of 96</p>
                <div class=""face-images"">
                    <img src=""https://raw.githubusercontent.com/annapusok731/composite_face_effect_studies/main/CFE_Adult/misaligned/david_luca.jpg"" alt=""Face 1"">
                    <img src=""https://raw.githubusercontent.com/annapusok731/composite_face_effect_studies/main/CFE_Adult/misaligned/luca_david.jpg"" alt=""Face 2"">
                </div>
                <h2 class=""trial-question"">Are the top parts of the faces the same or different?</h2>
            </div>
        ",null,html-button-response,90,440677,0.0-33.0-1.0,luk16yjvn3,Monday at 2:00 PM,"[""https://raw.githubusercontent.com/annapusok731/lookit-stimuli-template/master/test_stimuli/bridget_alexis1.jpg"",""https://raw.githubusercontent.com/annapusok731/lookit-stimuli-template/master/test_stimuli/bridget_bridget1.jpg""]",,,,,,main_viewing,26,,,,,https://raw.githubusercontent.com/annapusok731/composite_face_effect_studies/main/CFE_Adult/misaligned/david_luca.jpg,https://raw.githubusercontent.com/annapusok731/composite_face_effect_studies/main/CFE_Adult/misaligned/luca_david.jpg,,,,,,,,,,,,,,,,,,,,,,,,,,,,,,,,,,,,,,,,,,,,,,,,,,,,,,,,,,,,,,,,,,,,,,,,,
212,"
                        <div style=""text-align: center;"">
                            <p style=""color: #666; font-size: 20px; margin-top: 10px;"">Trial 26 of 96</p>
                            <h2 class=""trial-question"">Are the top parts of the faces the same or different?</h2>
                        </div>
                    ",1,html-button-response,91,440890,0.0-33.0-2.0,luk16yjvn3,Monday at 2:00 PM,"[""https://raw.githubusercontent.com/annapusok731/lookit-stimuli-template/master/test_stimuli/bridget_alexis1.jpg"",""https://raw.githubusercontent.com/annapusok731/lookit-stimuli-template/master/test_stimuli/bridget_bridget1.jpg""]",,,,,,main,26,different,different,TRUE,212,https://raw.githubusercontent.com/annapusok731/composite_face_effect_studies/main/CFE_Adult/misaligned/david_luca.jpg,https://raw.githubusercontent.com/annapusok731/composite_face_effect_studies/main/CFE_Adult/misaligned/luca_david.jpg,diff_misalign,,,,,,,,,,,,,,,,,,,,,,,,,,,,,,,,,,,,,,,,,,,,,,,,,,,,,,,,,,,,,,,,,,,,,,,,
null,"<div class=""fixation-cross"">+</div>",null,html-keyboard-response,92,442099,0.0-34.0-0.0,luk16yjvn3,Monday at 2:00 PM,"[""https://raw.githubusercontent.com/annapusok731/lookit-stimuli-template/master/test_stimuli/bridget_alexis1.jpg"",""https://raw.githubusercontent.com/annapusok731/lookit-stimuli-template/master/test_stimuli/bridget_bridget1.jpg""]",,,,,,,,,,,,,,,,,,,,,,,,,,,,,,,,,,,,,,,,,,,,,,,,,,,,,,,,,,,,,,,,,,,,,,,,,,,,,,,,,,,,,,
null,"
            <div style=""text-align: center;"">
                <p style=""color: #666; font-size: 20px; margin-top: 10px; "">Trial 27 of 96</p>
                <div class=""face-images"">
                    <img src=""https://raw.githubusercontent.com/annapusok731/composite_face_effect_studies/main/CFE_Adult/aligned/cal_blake.jpg"" alt=""Face 1"">
                    <img src=""https://raw.githubusercontent.com/annapusok731/composite_face_effect_studies/main/CFE_Adult/aligned/cal_cal.jpg"" alt=""Face 2"">
                </div>
                <h2 class=""trial-question"">Are the top parts of the faces the same or different?</h2>
            </div>
        ",null,html-button-response,93,443101,0.0-34.0-1.0,luk16yjvn3,Monday at 2:00 PM,"[""https://raw.githubusercontent.com/annapusok731/lookit-stimuli-template/master/test_stimuli/bridget_alexis1.jpg"",""https://raw.githubusercontent.com/annapusok731/lookit-stimuli-template/master/test_stimuli/bridget_bridget1.jpg""]",,,,,,main_viewing,27,,,,,https://raw.githubusercontent.com/annapusok731/composite_face_effect_studies/main/CFE_Adult/aligned/cal_blake.jpg,https://raw.githubusercontent.com/annapusok731/composite_face_effect_studies/main/CFE_Adult/aligned/cal_cal.jpg,,,,,,,,,,,,,,,,,,,,,,,,,,,,,,,,,,,,,,,,,,,,,,,,,,,,,,,,,,,,,,,,,,,,,,,,,
293,"
                        <div style=""text-align: center;"">
                            <p style=""color: #666; font-size: 20px; margin-top: 10px;"">Trial 27 of 96</p>
                            <h2 class=""trial-question"">Are the top parts of the faces the same or different?</h2>
                        </div>
                    ",1,html-button-response,94,443396,0.0-34.0-2.0,luk16yjvn3,Monday at 2:00 PM,"[""https://raw.githubusercontent.com/annapusok731/lookit-stimuli-template/master/test_stimuli/bridget_alexis1.jpg"",""https://raw.githubusercontent.com/annapusok731/lookit-stimuli-template/master/test_stimuli/bridget_bridget1.jpg""]",,,,,,main,27,same,different,FALSE,293,https://raw.githubusercontent.com/annapusok731/composite_face_effect_studies/main/CFE_Adult/aligned/cal_blake.jpg,https://raw.githubusercontent.com/annapusok731/composite_face_effect_studies/main/CFE_Adult/aligned/cal_cal.jpg,same_aligned,,,,,,,,,,,,,,,,,,,,,,,,,,,,,,,,,,,,,,,,,,,,,,,,,,,,,,,,,,,,,,,,,,,,,,,,
null,"<div class=""fixation-cross"">+</div>",null,html-keyboard-response,95,444612,0.0-35.0-0.0,luk16yjvn3,Monday at 2:00 PM,"[""https://raw.githubusercontent.com/annapusok731/lookit-stimuli-template/master/test_stimuli/bridget_alexis1.jpg"",""https://raw.githubusercontent.com/annapusok731/lookit-stimuli-template/master/test_stimuli/bridget_bridget1.jpg""]",,,,,,,,,,,,,,,,,,,,,,,,,,,,,,,,,,,,,,,,,,,,,,,,,,,,,,,,,,,,,,,,,,,,,,,,,,,,,,,,,,,,,,
null,"
            <div style=""text-align: center;"">
                <p style=""color: #666; font-size: 20px; margin-top: 10px; "">Trial 28 of 96</p>
                <div class=""face-images"">
                    <img src=""https://raw.githubusercontent.com/annapusok731/composite_face_effect_studies/main/CFE_Adult/misaligned/dan_will.jpg"" alt=""Face 1"">
                    <img src=""https://raw.githubusercontent.com/annapusok731/composite_face_effect_studies/main/CFE_Adult/misaligned/will_dan.jpg"" alt=""Face 2"">
                </div>
                <h2 class=""trial-question"">Are the top parts of the faces the same or different?</h2>
            </div>
        ",null,html-button-response,96,445615,0.0-35.0-1.0,luk16yjvn3,Monday at 2:00 PM,"[""https://raw.githubusercontent.com/annapusok731/lookit-stimuli-template/master/test_stimuli/bridget_alexis1.jpg"",""https://raw.githubusercontent.com/annapusok731/lookit-stimuli-template/master/test_stimuli/bridget_bridget1.jpg""]",,,,,,main_viewing,28,,,,,https://raw.githubusercontent.com/annapusok731/composite_face_effect_studies/main/CFE_Adult/misaligned/dan_will.jpg,https://raw.githubusercontent.com/annapusok731/composite_face_effect_studies/main/CFE_Adult/misaligned/will_dan.jpg,,,,,,,,,,,,,,,,,,,,,,,,,,,,,,,,,,,,,,,,,,,,,,,,,,,,,,,,,,,,,,,,,,,,,,,,,
1041,"
                        <div style=""text-align: center;"">
                            <p style=""color: #666; font-size: 20px; margin-top: 10px;"">Trial 28 of 96</p>
                            <h2 class=""trial-question"">Are the top parts of the faces the same or different?</h2>
                        </div>
                    ",1,html-button-response,97,446657,0.0-35.0-2.0,luk16yjvn3,Monday at 2:00 PM,"[""https://raw.githubusercontent.com/annapusok731/lookit-stimuli-template/master/test_stimuli/bridget_alexis1.jpg"",""https://raw.githubusercontent.com/annapusok731/lookit-stimuli-template/master/test_stimuli/bridget_bridget1.jpg""]",,,,,,main,28,different,different,TRUE,1041,https://raw.githubusercontent.com/annapusok731/composite_face_effect_studies/main/CFE_Adult/misaligned/dan_will.jpg,https://raw.githubusercontent.com/annapusok731/composite_face_effect_studies/main/CFE_Adult/misaligned/will_dan.jpg,diff_misalign,,,,,,,,,,,,,,,,,,,,,,,,,,,,,,,,,,,,,,,,,,,,,,,,,,,,,,,,,,,,,,,,,,,,,,,,
null,"<div class=""fixation-cross"">+</div>",null,html-keyboard-response,98,447865,0.0-36.0-0.0,luk16yjvn3,Monday at 2:00 PM,"[""https://raw.githubusercontent.com/annapusok731/lookit-stimuli-template/master/test_stimuli/bridget_alexis1.jpg"",""https://raw.githubusercontent.com/annapusok731/lookit-stimuli-template/master/test_stimuli/bridget_bridget1.jpg""]",,,,,,,,,,,,,,,,,,,,,,,,,,,,,,,,,,,,,,,,,,,,,,,,,,,,,,,,,,,,,,,,,,,,,,,,,,,,,,,,,,,,,,
null,"
            <div style=""text-align: center;"">
                <p style=""color: #666; font-size: 20px; margin-top: 10px; "">Trial 29 of 96</p>
                <div class=""face-images"">
                    <img src=""https://raw.githubusercontent.com/annapusok731/composite_face_effect_studies/main/CFE_Adult/aligned/tina_alexis.jpg"" alt=""Face 1"">
                    <img src=""https://raw.githubusercontent.com/annapusok731/composite_face_effect_studies/main/CFE_Adult/aligned/alexis_tina.jpg"" alt=""Face 2"">
                </div>
                <h2 class=""trial-question"">Are the top parts of the faces the same or different?</h2>
            </div>
        ",null,html-button-response,99,448870,0.0-36.0-1.0,luk16yjvn3,Monday at 2:00 PM,"[""https://raw.githubusercontent.com/annapusok731/lookit-stimuli-template/master/test_stimuli/bridget_alexis1.jpg"",""https://raw.githubusercontent.com/annapusok731/lookit-stimuli-template/master/test_stimuli/bridget_bridget1.jpg""]",,,,,,main_viewing,29,,,,,https://raw.githubusercontent.com/annapusok731/composite_face_effect_studies/main/CFE_Adult/aligned/tina_alexis.jpg,https://raw.githubusercontent.com/annapusok731/composite_face_effect_studies/main/CFE_Adult/aligned/alexis_tina.jpg,,,,,,,,,,,,,,,,,,,,,,,,,,,,,,,,,,,,,,,,,,,,,,,,,,,,,,,,,,,,,,,,,,,,,,,,,
728,"
                        <div style=""text-align: center;"">
                            <p style=""color: #666; font-size: 20px; margin-top: 10px;"">Trial 29 of 96</p>
                            <h2 class=""trial-question"">Are the top parts of the faces the same or different?</h2>
                        </div>
                    ",0,html-button-response,100,449599,0.0-36.0-2.0,luk16yjvn3,Monday at 2:00 PM,"[""https://raw.githubusercontent.com/annapusok731/lookit-stimuli-template/master/test_stimuli/bridget_alexis1.jpg"",""https://raw.githubusercontent.com/annapusok731/lookit-stimuli-template/master/test_stimuli/bridget_bridget1.jpg""]",,,,,,main,29,different,same,FALSE,728,https://raw.githubusercontent.com/annapusok731/composite_face_effect_studies/main/CFE_Adult/aligned/tina_alexis.jpg,https://raw.githubusercontent.com/annapusok731/composite_face_effect_studies/main/CFE_Adult/aligned/alexis_tina.jpg,diff_align,,,,,,,,,,,,,,,,,,,,,,,,,,,,,,,,,,,,,,,,,,,,,,,,,,,,,,,,,,,,,,,,,,,,,,,,
null,"<div class=""fixation-cross"">+</div>",null,html-keyboard-response,101,450810,0.0-37.0-0.0,luk16yjvn3,Monday at 2:00 PM,"[""https://raw.githubusercontent.com/annapusok731/lookit-stimuli-template/master/test_stimuli/bridget_alexis1.jpg"",""https://raw.githubusercontent.com/annapusok731/lookit-stimuli-template/master/test_stimuli/bridget_bridget1.jpg""]",,,,,,,,,,,,,,,,,,,,,,,,,,,,,,,,,,,,,,,,,,,,,,,,,,,,,,,,,,,,,,,,,,,,,,,,,,,,,,,,,,,,,,
null,"
            <div style=""text-align: center;"">
                <p style=""color: #666; font-size: 20px; margin-top: 10px; "">Trial 30 of 96</p>
                <div class=""face-images"">
                    <img src=""https://raw.githubusercontent.com/annapusok731/composite_face_effect_studies/main/CFE_Adult/aligned/andy_bob.jpg"" alt=""Face 1"">
                    <img src=""https://raw.githubusercontent.com/annapusok731/composite_face_effect_studies/main/CFE_Adult/aligned/andy_andy.jpg"" alt=""Face 2"">
                </div>
                <h2 class=""trial-question"">Are the top parts of the faces the same or different?</h2>
            </div>
        ",null,html-button-response,102,451817,0.0-37.0-1.0,luk16yjvn3,Monday at 2:00 PM,"[""https://raw.githubusercontent.com/annapusok731/lookit-stimuli-template/master/test_stimuli/bridget_alexis1.jpg"",""https://raw.githubusercontent.com/annapusok731/lookit-stimuli-template/master/test_stimuli/bridget_bridget1.jpg""]",,,,,,main_viewing,30,,,,,https://raw.githubusercontent.com/annapusok731/composite_face_effect_studies/main/CFE_Adult/aligned/andy_bob.jpg,https://raw.githubusercontent.com/annapusok731/composite_face_effect_studies/main/CFE_Adult/aligned/andy_andy.jpg,,,,,,,,,,,,,,,,,,,,,,,,,,,,,,,,,,,,,,,,,,,,,,,,,,,,,,,,,,,,,,,,,,,,,,,,,
341,"
                        <div style=""text-align: center;"">
                            <p style=""color: #666; font-size: 20px; margin-top: 10px;"">Trial 30 of 96</p>
                            <h2 class=""trial-question"">Are the top parts of the faces the same or different?</h2>
                        </div>
                    ",0,html-button-response,103,452159,0.0-37.0-2.0,luk16yjvn3,Monday at 2:00 PM,"[""https://raw.githubusercontent.com/annapusok731/lookit-stimuli-template/master/test_stimuli/bridget_alexis1.jpg"",""https://raw.githubusercontent.com/annapusok731/lookit-stimuli-template/master/test_stimuli/bridget_bridget1.jpg""]",,,,,,main,30,same,same,TRUE,341,https://raw.githubusercontent.com/annapusok731/composite_face_effect_studies/main/CFE_Adult/aligned/andy_bob.jpg,https://raw.githubusercontent.com/annapusok731/composite_face_effect_studies/main/CFE_Adult/aligned/andy_andy.jpg,same_aligned,,,,,,,,,,,,,,,,,,,,,,,,,,,,,,,,,,,,,,,,,,,,,,,,,,,,,,,,,,,,,,,,,,,,,,,,
null,"<div class=""fixation-cross"">+</div>",null,html-keyboard-response,104,453362,0.0-38.0-0.0,luk16yjvn3,Monday at 2:00 PM,"[""https://raw.githubusercontent.com/annapusok731/lookit-stimuli-template/master/test_stimuli/bridget_alexis1.jpg"",""https://raw.githubusercontent.com/annapusok731/lookit-stimuli-template/master/test_stimuli/bridget_bridget1.jpg""]",,,,,,,,,,,,,,,,,,,,,,,,,,,,,,,,,,,,,,,,,,,,,,,,,,,,,,,,,,,,,,,,,,,,,,,,,,,,,,,,,,,,,,
null,"
            <div style=""text-align: center;"">
                <p style=""color: #666; font-size: 20px; margin-top: 10px; "">Trial 31 of 96</p>
                <div class=""face-images"">
                    <img src=""https://raw.githubusercontent.com/annapusok731/composite_face_effect_studies/main/CFE_Adult/aligned/brenda_brenda.jpg"" alt=""Face 1"">
                    <img src=""https://raw.githubusercontent.com/annapusok731/composite_face_effect_studies/main/CFE_Adult/aligned/brenda_bridget.jpg"" alt=""Face 2"">
                </div>
                <h2 class=""trial-question"">Are the top parts of the faces the same or different?</h2>
            </div>
        ",null,html-button-response,105,454379,0.0-38.0-1.0,luk16yjvn3,Monday at 2:00 PM,"[""https://raw.githubusercontent.com/annapusok731/lookit-stimuli-template/master/test_stimuli/bridget_alexis1.jpg"",""https://raw.githubusercontent.com/annapusok731/lookit-stimuli-template/master/test_stimuli/bridget_bridget1.jpg""]",,,,,,main_viewing,31,,,,,https://raw.githubusercontent.com/annapusok731/composite_face_effect_studies/main/CFE_Adult/aligned/brenda_brenda.jpg,https://raw.githubusercontent.com/annapusok731/composite_face_effect_studies/main/CFE_Adult/aligned/brenda_bridget.jpg,,,,,,,,,,,,,,,,,,,,,,,,,,,,,,,,,,,,,,,,,,,,,,,,,,,,,,,,,,,,,,,,,,,,,,,,,
521,"
                        <div style=""text-align: center;"">
                            <p style=""color: #666; font-size: 20px; margin-top: 10px;"">Trial 31 of 96</p>
                            <h2 class=""trial-question"">Are the top parts of the faces the same or different?</h2>
                        </div>
                    ",0,html-button-response,106,454902,0.0-38.0-2.0,luk16yjvn3,Monday at 2:00 PM,"[""https://raw.githubusercontent.com/annapusok731/lookit-stimuli-template/master/test_stimuli/bridget_alexis1.jpg"",""https://raw.githubusercontent.com/annapusok731/lookit-stimuli-template/master/test_stimuli/bridget_bridget1.jpg""]",,,,,,main,31,same,same,TRUE,521,https://raw.githubusercontent.com/annapusok731/composite_face_effect_studies/main/CFE_Adult/aligned/brenda_brenda.jpg,https://raw.githubusercontent.com/annapusok731/composite_face_effect_studies/main/CFE_Adult/aligned/brenda_bridget.jpg,same_aligned,,,,,,,,,,,,,,,,,,,,,,,,,,,,,,,,,,,,,,,,,,,,,,,,,,,,,,,,,,,,,,,,,,,,,,,,
