"rt","stimulus","response","trial_type","trial_index","time_elapsed","internal_node_id","subject_id","timeslot","current_practice_images","success","timeout","failed_images","failed_audio","failed_video","task","trial_number","correct_answer","response_label","correct","response_time_ms","image_left","image_right","condition","question_order","Q1","Q2","Q3","Q4","Q5","Q6","Q7","Q8","Q9","Q10","Q11","Q12","Q13","Q14","Q15","Q16","Q17","Q18","Q19","Q20","Q21","Q22","Q23","Q24","Q25","Q26","Q27","Q28","Q29","Q30","Q31","Q32","Q33","Q34","Q35","Q36","Q37","Q38","Q39","Q40","Q41","Q42","Q43","Q44","Q45","Q46","Q47","Q48","Q49","Q50","Q51","Q52","Q53","Q54","Q55","Q56","Q57","Q58","Q59","Q60","Q61","Q62","Q63","Q64","Q65","srs_total_score","age","race_ethnicity","sex","education","living_status"
"9790","
            <h1>Research Study Consent Form</h1>
            <div class=""consent-content"">
                <p>You are being invited to participate in a research study titled ""Reproducibility of Psychological Science and Instruction."" This study is being done by Dr. Bria Long from UC San Diego and associated graduate students in Experimental Methods course. You were selected to participate in this study because you are an adult in the U.S. and have been a represented population in previous psychology studies.</p>
                
                <p>The purpose of this study is to better understand how well previously published studies in the psychological field replicate online and with different populations. Your participation in this research should last approximately 5-30 minutes. If you agree to take part in this study, you may be asked to view a set of stimuli, including pictures, sounds, written text, or videos and then giving some responses via key-presses, verbally, or with paper-and-pencil. We may also observe your choices or preferences among an array of stimuli. These stimuli will be taken directly from or closely adapted from studies that already exist in the published psychological literature. Stimuli will include, e.g., pictures of objects and human faces, audio and video clips, short text passages, etc. None of the stimuli will be disturbing, threatening, or offensive. The online and in-person experiments described in this protocol will take no more than 30 minutes. An example game you might play would be to click on an image on the screen that matches a word you hear being said out loud. Your total expected time commitment for this study is between 5-30 minutes, and is specified in the study description.</p>
                
                <p>Your participation in this study is completely voluntary and you can withdraw at any time. Choosing not to participate or withdrawing will result in no penalty or loss of benefits to which you are entitled. You are free to skip any question that you choose.</p>
                
                <p>We will not be asking for any personally identifying information, and we will handle responses as confidentially as possible. Your SONA or Prolific IDs will never be tied to your responses on this survey. However, we cannot guarantee the confidentiality of information transmitted over the Internet. To minimize this risk, data containing anything that might be personally identifiable (e.g. Prolific IDs or IP addresses) will be encrypted on transfer and storage and will only be accessible to qualified lab personnel. We will be keeping data collected as part of this experiment indefinitely. This anonymized data (containing neither Prolific IDs nor IP addresses) may be shared with the scientific community or with other participants to be used as stimuli in future studies.</p>
                
                <p>If you have questions about this project or if you have a research-related problem, you may contact the researcher(s), Dr. Bria Long, <a href=""mailto:brlong@ucsd.edu"">brlong@ucsd.edu</a>. If you have any questions concerning your rights as a research subject, you may contact the UC San Diego Office of IRB Administration at <a href=""mailto:irb@ucsd.edu"">irb@ucsd.edu</a> or 858-246-4777.</p>
                
                <p><strong>By participating in this research you are indicating that you are at least 18 years old, have read this consent form, and agree to participate in this research study. Please keep this consent form for your records.</strong></p>
            </div>
        ","0","html-button-response","0","9794","0.0-0.0","r6k7xsxtxk","Thursday 11/20 2:30 PM","[""https://raw.githubusercontent.com/annapusok731/lookit-stimuli-template/master/test_stimuli/bridget_alexis1.jpg"",""https://raw.githubusercontent.com/annapusok731/lookit-stimuli-template/master/test_stimuli/bridget_bridget1.jpg""]","","","","","","","","","","","","","","","","","","","","","","","","","","","","","","","","","","","","","","","","","","","","","","","","","","","","","","","","","","","","","","","","","","","","","","","","","","","","","","","","","","","","","",""
"31363","
            <h1>Timeslot Information</h1>
            <div class=""demographics-form"">
                <div class=""form-group"">
                    <label for=""timeslot"">What is the date/time you signed up for? We will need this information to verify your session and issue your credit within 3 days of participation.</label>
                    <input type=""text"" id=""timeslot"" name=""timeslot"" placeholder=""e.g., Monday 11/18 at 2:00 PM"" required>
                </div>
            </div>
        ","0","html-button-response","1","41159","0.0-1.0","r6k7xsxtxk","Thursday 11/20 2:30 PM","[""https://raw.githubusercontent.com/annapusok731/lookit-stimuli-template/master/test_stimuli/bridget_alexis1.jpg"",""https://raw.githubusercontent.com/annapusok731/lookit-stimuli-template/master/test_stimuli/bridget_bridget1.jpg""]","","","","","","","","","","","","","","","","","","","","","","","","","","","","","","","","","","","","","","","","","","","","","","","","","","","","","","","","","","","","","","","","","","","","","","","","","","","","","","","","","","","","","",""
"7716","
            <h1>Instructions</h1>
            <p>In this task, you will see two pictures of faces side-by-side. They will be visible for a short amount of time.</p>
            <p>You will have to decide whether the top parts of the faces are the same or different.</p>
            <p>To answer, click on either the ""SAME"" or ""DIFFERENT"" buttons below the images.</p>
            <p>Try to answer as quickly as you can.</p>
            <p>There will be two practice trials. Once you click on ""Next"" after the second practice, the experiment will automatically start.</p>
            <p>After the experiment, we ask you to fill out two surveys.</p>
        ","0","html-button-response","2","48876","0.0-2.0","r6k7xsxtxk","Thursday 11/20 2:30 PM","[""https://raw.githubusercontent.com/annapusok731/lookit-stimuli-template/master/test_stimuli/bridget_alexis1.jpg"",""https://raw.githubusercontent.com/annapusok731/lookit-stimuli-template/master/test_stimuli/bridget_bridget1.jpg""]","","","","","","","","","","","","","","","","","","","","","","","","","","","","","","","","","","","","","","","","","","","","","","","","","","","","","","","","","","","","","","","","","","","","","","","","","","","","","","","","","","","","","",""
"","","","preload","3","49551","0.0-3.0","r6k7xsxtxk","Thursday 11/20 2:30 PM","[""https://raw.githubusercontent.com/annapusok731/lookit-stimuli-template/master/test_stimuli/bridget_alexis1.jpg"",""https://raw.githubusercontent.com/annapusok731/lookit-stimuli-template/master/test_stimuli/bridget_bridget1.jpg""]","true","false","[]","[]","[]","","","","","","","","","","","","","","","","","","","","","","","","","","","","","","","","","","","","","","","","","","","","","","","","","","","","","","","","","","","","","","","","","","","","","","","","","","","","","","","","",""
"1989","","","fullscreen","4","52542","0.0-4.0","r6k7xsxtxk","Thursday 11/20 2:30 PM","[""https://raw.githubusercontent.com/annapusok731/lookit-stimuli-template/master/test_stimuli/bridget_alexis1.jpg"",""https://raw.githubusercontent.com/annapusok731/lookit-stimuli-template/master/test_stimuli/bridget_bridget1.jpg""]","true","","","","","","","","","","","","","","","","","","","","","","","","","","","","","","","","","","","","","","","","","","","","","","","","","","","","","","","","","","","","","","","","","","","","","","","","","","","","","","","","","","","","",""
"null","<div class=""fixation-cross"">+</div>","null","html-keyboard-response","5","53744","0.0-5.0-0.0","r6k7xsxtxk","Thursday 11/20 2:30 PM","[""https://raw.githubusercontent.com/annapusok731/lookit-stimuli-template/master/test_stimuli/bridget_alexis1.jpg"",""https://raw.githubusercontent.com/annapusok731/lookit-stimuli-template/master/test_stimuli/bridget_bridget1.jpg""]","","","","","","","","","","","","","","","","","","","","","","","","","","","","","","","","","","","","","","","","","","","","","","","","","","","","","","","","","","","","","","","","","","","","","","","","","","","","","","","","","","","","","",""
"null","
            <div style=""text-align: center;"">
                <p style=""color: #666; font-size: 20px; margin-top: 10px; "">Practice Trial 1 of 2</p>
                <div class=""face-images"">
                    <img src=""https://raw.githubusercontent.com/annapusok731/lookit-stimuli-template/master/test_stimuli/william_arnold1.jpg"" alt=""Face 1"">
                    <img src=""https://raw.githubusercontent.com/annapusok731/lookit-stimuli-template/master/test_stimuli/arnold_william1.jpg"" alt=""Face 2"">
                </div>
                <h2 class=""trial-question"">Are the top parts of the faces the same or different?</h2>
            </div>
        ","null","html-button-response","6","54747","0.0-5.0-1.0","r6k7xsxtxk","Thursday 11/20 2:30 PM","[""https://raw.githubusercontent.com/annapusok731/lookit-stimuli-template/master/test_stimuli/bridget_alexis1.jpg"",""https://raw.githubusercontent.com/annapusok731/lookit-stimuli-template/master/test_stimuli/bridget_bridget1.jpg""]","","","","","","practice_viewing","1","","","","","","","","","","","","","","","","","","","","","","","","","","","","","","","","","","","","","","","","","","","","","","","","","","","","","","","","","","","","","","","","","","","","","","","","","","","","","","",""
"1959","<h2 class=""trial-question"">Are the top parts of the faces the same or different?</h2>","1","html-button-response","7","56707","0.0-5.0-2.0","r6k7xsxtxk","Thursday 11/20 2:30 PM","[""https://raw.githubusercontent.com/annapusok731/lookit-stimuli-template/master/test_stimuli/bridget_alexis1.jpg"",""https://raw.githubusercontent.com/annapusok731/lookit-stimuli-template/master/test_stimuli/bridget_bridget1.jpg""]","","","","","","practice","1","different","different","true","1959","","","","","","","","","","","","","","","","","","","","","","","","","","","","","","","","","","","","","","","","","","","","","","","","","","","","","","","","","","","","","","","","","","","","","","","","","","",""
"981","
                                <h1 class=""feedback-correct"">Great job!</h1>
                                <p style=""font-size: 18px; margin-top: 20px;"">The top parts of the faces are different!</p>
                            ","0","html-button-response","8","57691","0.0-5.0-3.0","r6k7xsxtxk","Thursday 11/20 2:30 PM","[""https://raw.githubusercontent.com/annapusok731/lookit-stimuli-template/master/test_stimuli/bridget_alexis1.jpg"",""https://raw.githubusercontent.com/annapusok731/lookit-stimuli-template/master/test_stimuli/bridget_bridget1.jpg""]","","","","","","","","","","","","","","","","","","","","","","","","","","","","","","","","","","","","","","","","","","","","","","","","","","","","","","","","","","","","","","","","","","","","","","","","","","","","","","","","","","","","","",""
"null","<div class=""fixation-cross"">+</div>","null","html-keyboard-response","9","58893","0.0-6.0-0.0","r6k7xsxtxk","Thursday 11/20 2:30 PM","[""https://raw.githubusercontent.com/annapusok731/lookit-stimuli-template/master/test_stimuli/bridget_alexis1.jpg"",""https://raw.githubusercontent.com/annapusok731/lookit-stimuli-template/master/test_stimuli/bridget_bridget1.jpg""]","","","","","","","","","","","","","","","","","","","","","","","","","","","","","","","","","","","","","","","","","","","","","","","","","","","","","","","","","","","","","","","","","","","","","","","","","","","","","","","","","","","","","",""
"null","
            <div style=""text-align: center;"">
                <p style=""color: #666; font-size: 20px; margin-top: 10px; "">Practice Trial 2 of 2</p>
                <div class=""face-images"">
                    <img src=""https://raw.githubusercontent.com/annapusok731/lookit-stimuli-template/master/test_stimuli/bridget_alexis1.jpg"" alt=""Face 1"">
                    <img src=""https://raw.githubusercontent.com/annapusok731/lookit-stimuli-template/master/test_stimuli/bridget_bridget1.jpg"" alt=""Face 2"">
                </div>
                <h2 class=""trial-question"">Are the top parts of the faces the same or different?</h2>
            </div>
        ","null","html-button-response","10","59896","0.0-6.0-1.0","r6k7xsxtxk","Thursday 11/20 2:30 PM","[""https://raw.githubusercontent.com/annapusok731/lookit-stimuli-template/master/test_stimuli/bridget_alexis1.jpg"",""https://raw.githubusercontent.com/annapusok731/lookit-stimuli-template/master/test_stimuli/bridget_bridget1.jpg""]","","","","","","practice_viewing","2","","","","","","","","","","","","","","","","","","","","","","","","","","","","","","","","","","","","","","","","","","","","","","","","","","","","","","","","","","","","","","","","","","","","","","","","","","","","","","",""
"743","<h2 class=""trial-question"">Are the top parts of the faces the same or different?</h2>","0","html-button-response","11","60641","0.0-6.0-2.0","r6k7xsxtxk","Thursday 11/20 2:30 PM","[""https://raw.githubusercontent.com/annapusok731/lookit-stimuli-template/master/test_stimuli/bridget_alexis1.jpg"",""https://raw.githubusercontent.com/annapusok731/lookit-stimuli-template/master/test_stimuli/bridget_bridget1.jpg""]","","","","","","practice","2","same","same","true","743","","","","","","","","","","","","","","","","","","","","","","","","","","","","","","","","","","","","","","","","","","","","","","","","","","","","","","","","","","","","","","","","","","","","","","","","","","",""
"698","
                                <h1 class=""feedback-correct"">Great job!</h1>
                                <p style=""font-size: 18px; margin-top: 20px;"">The top parts of the faces are same!</p>
                            ","0","html-button-response","12","61340","0.0-6.0-3.0","r6k7xsxtxk","Thursday 11/20 2:30 PM","[""https://raw.githubusercontent.com/annapusok731/lookit-stimuli-template/master/test_stimuli/bridget_alexis1.jpg"",""https://raw.githubusercontent.com/annapusok731/lookit-stimuli-template/master/test_stimuli/bridget_bridget1.jpg""]","","","","","","","","","","","","","","","","","","","","","","","","","","","","","","","","","","","","","","","","","","","","","","","","","","","","","","","","","","","","","","","","","","","","","","","","","","","","","","","","","","","","","",""
"734","
            <h1 class=""feedback-correct"">Practice Complete!</h1>
            <p style=""font-size: 18px; margin-top: 20px;"">Great job! Now starting the experiment.</p>
        ","0","html-button-response","13","62075","0.0-7.0","r6k7xsxtxk","Thursday 11/20 2:30 PM","[""https://raw.githubusercontent.com/annapusok731/lookit-stimuli-template/master/test_stimuli/bridget_alexis1.jpg"",""https://raw.githubusercontent.com/annapusok731/lookit-stimuli-template/master/test_stimuli/bridget_bridget1.jpg""]","","","","","","","","","","","","","","","","","","","","","","","","","","","","","","","","","","","","","","","","","","","","","","","","","","","","","","","","","","","","","","","","","","","","","","","","","","","","","","","","","","","","","",""
"null","<div class=""fixation-cross"">+</div>","null","html-keyboard-response","14","63276","0.0-8.0-0.0","r6k7xsxtxk","Thursday 11/20 2:30 PM","[""https://raw.githubusercontent.com/annapusok731/lookit-stimuli-template/master/test_stimuli/bridget_alexis1.jpg"",""https://raw.githubusercontent.com/annapusok731/lookit-stimuli-template/master/test_stimuli/bridget_bridget1.jpg""]","","","","","","","","","","","","","","","","","","","","","","","","","","","","","","","","","","","","","","","","","","","","","","","","","","","","","","","","","","","","","","","","","","","","","","","","","","","","","","","","","","","","","",""
"null","
            <div style=""text-align: center;"">
                <p style=""color: #666; font-size: 20px; margin-top: 10px; "">Trial 1 of 96</p>
                <div class=""face-images"">
                    <img src=""https://raw.githubusercontent.com/annapusok731/composite_face_effect_studies/main/CFE_Adult/misaligned/elsa_sharon.jpg"" alt=""Face 1"">
                    <img src=""https://raw.githubusercontent.com/annapusok731/composite_face_effect_studies/main/CFE_Adult/misaligned/sharon_elsa.jpg"" alt=""Face 2"">
                </div>
                <h2 class=""trial-question"">Are the top parts of the faces the same or different?</h2>
            </div>
        ","null","html-button-response","15","64279","0.0-8.0-1.0","r6k7xsxtxk","Thursday 11/20 2:30 PM","[""https://raw.githubusercontent.com/annapusok731/lookit-stimuli-template/master/test_stimuli/bridget_alexis1.jpg"",""https://raw.githubusercontent.com/annapusok731/lookit-stimuli-template/master/test_stimuli/bridget_bridget1.jpg""]","","","","","","main_viewing","1","","","","","https://raw.githubusercontent.com/annapusok731/composite_face_effect_studies/main/CFE_Adult/misaligned/elsa_sharon.jpg","https://raw.githubusercontent.com/annapusok731/composite_face_effect_studies/main/CFE_Adult/misaligned/sharon_elsa.jpg","","","","","","","","","","","","","","","","","","","","","","","","","","","","","","","","","","","","","","","","","","","","","","","","","","","","","","","","","","","","","","","","","","","","","","","","",""
"761","
                        <div style=""text-align: center;"">
                            <p style=""color: #666; font-size: 20px; margin-top: 10px;"">Trial 1 of 96</p>
                            <h2 class=""trial-question"">Are the top parts of the faces the same or different?</h2>
                        </div>
                    ","1","html-button-response","16","65041","0.0-8.0-2.0","r6k7xsxtxk","Thursday 11/20 2:30 PM","[""https://raw.githubusercontent.com/annapusok731/lookit-stimuli-template/master/test_stimuli/bridget_alexis1.jpg"",""https://raw.githubusercontent.com/annapusok731/lookit-stimuli-template/master/test_stimuli/bridget_bridget1.jpg""]","","","","","","main","1","different","different","true","761","https://raw.githubusercontent.com/annapusok731/composite_face_effect_studies/main/CFE_Adult/misaligned/elsa_sharon.jpg","https://raw.githubusercontent.com/annapusok731/composite_face_effect_studies/main/CFE_Adult/misaligned/sharon_elsa.jpg","diff_misalign","","","","","","","","","","","","","","","","","","","","","","","","","","","","","","","","","","","","","","","","","","","","","","","","","","","","","","","","","","","","","","","","","","","","","","","",""
"null","<div class=""fixation-cross"">+</div>","null","html-keyboard-response","17","66244","0.0-9.0-0.0","r6k7xsxtxk","Thursday 11/20 2:30 PM","[""https://raw.githubusercontent.com/annapusok731/lookit-stimuli-template/master/test_stimuli/bridget_alexis1.jpg"",""https://raw.githubusercontent.com/annapusok731/lookit-stimuli-template/master/test_stimuli/bridget_bridget1.jpg""]","","","","","","","","","","","","","","","","","","","","","","","","","","","","","","","","","","","","","","","","","","","","","","","","","","","","","","","","","","","","","","","","","","","","","","","","","","","","","","","","","","","","","",""
"null","
            <div style=""text-align: center;"">
                <p style=""color: #666; font-size: 20px; margin-top: 10px; "">Trial 2 of 96</p>
                <div class=""face-images"">
                    <img src=""https://raw.githubusercontent.com/annapusok731/composite_face_effect_studies/main/CFE_Adult/misaligned/alex_alex.jpg"" alt=""Face 1"">
                    <img src=""https://raw.githubusercontent.com/annapusok731/composite_face_effect_studies/main/CFE_Adult/misaligned/alex_rick.jpg"" alt=""Face 2"">
                </div>
                <h2 class=""trial-question"">Are the top parts of the faces the same or different?</h2>
            </div>
        ","null","html-button-response","18","67246","0.0-9.0-1.0","r6k7xsxtxk","Thursday 11/20 2:30 PM","[""https://raw.githubusercontent.com/annapusok731/lookit-stimuli-template/master/test_stimuli/bridget_alexis1.jpg"",""https://raw.githubusercontent.com/annapusok731/lookit-stimuli-template/master/test_stimuli/bridget_bridget1.jpg""]","","","","","","main_viewing","2","","","","","https://raw.githubusercontent.com/annapusok731/composite_face_effect_studies/main/CFE_Adult/misaligned/alex_alex.jpg","https://raw.githubusercontent.com/annapusok731/composite_face_effect_studies/main/CFE_Adult/misaligned/alex_rick.jpg","","","","","","","","","","","","","","","","","","","","","","","","","","","","","","","","","","","","","","","","","","","","","","","","","","","","","","","","","","","","","","","","","","","","","","","","",""
"777","
                        <div style=""text-align: center;"">
                            <p style=""color: #666; font-size: 20px; margin-top: 10px;"">Trial 2 of 96</p>
                            <h2 class=""trial-question"">Are the top parts of the faces the same or different?</h2>
                        </div>
                    ","0","html-button-response","19","68024","0.0-9.0-2.0","r6k7xsxtxk","Thursday 11/20 2:30 PM","[""https://raw.githubusercontent.com/annapusok731/lookit-stimuli-template/master/test_stimuli/bridget_alexis1.jpg"",""https://raw.githubusercontent.com/annapusok731/lookit-stimuli-template/master/test_stimuli/bridget_bridget1.jpg""]","","","","","","main","2","same","same","true","777","https://raw.githubusercontent.com/annapusok731/composite_face_effect_studies/main/CFE_Adult/misaligned/alex_alex.jpg","https://raw.githubusercontent.com/annapusok731/composite_face_effect_studies/main/CFE_Adult/misaligned/alex_rick.jpg","same_misaligned","","","","","","","","","","","","","","","","","","","","","","","","","","","","","","","","","","","","","","","","","","","","","","","","","","","","","","","","","","","","","","","","","","","","","","","",""
"null","<div class=""fixation-cross"">+</div>","null","html-keyboard-response","20","69226","0.0-10.0-0.0","r6k7xsxtxk","Thursday 11/20 2:30 PM","[""https://raw.githubusercontent.com/annapusok731/lookit-stimuli-template/master/test_stimuli/bridget_alexis1.jpg"",""https://raw.githubusercontent.com/annapusok731/lookit-stimuli-template/master/test_stimuli/bridget_bridget1.jpg""]","","","","","","","","","","","","","","","","","","","","","","","","","","","","","","","","","","","","","","","","","","","","","","","","","","","","","","","","","","","","","","","","","","","","","","","","","","","","","","","","","","","","","",""
"null","
            <div style=""text-align: center;"">
                <p style=""color: #666; font-size: 20px; margin-top: 10px; "">Trial 3 of 96</p>
                <div class=""face-images"">
                    <img src=""https://raw.githubusercontent.com/annapusok731/composite_face_effect_studies/main/CFE_Adult/aligned/sydney_gabrielle.jpg"" alt=""Face 1"">
                    <img src=""https://raw.githubusercontent.com/annapusok731/composite_face_effect_studies/main/CFE_Adult/aligned/gabrielle_sydney.jpg"" alt=""Face 2"">
                </div>
                <h2 class=""trial-question"">Are the top parts of the faces the same or different?</h2>
            </div>
        ","null","html-button-response","21","70229","0.0-10.0-1.0","r6k7xsxtxk","Thursday 11/20 2:30 PM","[""https://raw.githubusercontent.com/annapusok731/lookit-stimuli-template/master/test_stimuli/bridget_alexis1.jpg"",""https://raw.githubusercontent.com/annapusok731/lookit-stimuli-template/master/test_stimuli/bridget_bridget1.jpg""]","","","","","","main_viewing","3","","","","","https://raw.githubusercontent.com/annapusok731/composite_face_effect_studies/main/CFE_Adult/aligned/sydney_gabrielle.jpg","https://raw.githubusercontent.com/annapusok731/composite_face_effect_studies/main/CFE_Adult/aligned/gabrielle_sydney.jpg","","","","","","","","","","","","","","","","","","","","","","","","","","","","","","","","","","","","","","","","","","","","","","","","","","","","","","","","","","","","","","","","","","","","","","","","",""
"562","
                        <div style=""text-align: center;"">
                            <p style=""color: #666; font-size: 20px; margin-top: 10px;"">Trial 3 of 96</p>
                            <h2 class=""trial-question"">Are the top parts of the faces the same or different?</h2>
                        </div>
                    ","1","html-button-response","22","70792","0.0-10.0-2.0","r6k7xsxtxk","Thursday 11/20 2:30 PM","[""https://raw.githubusercontent.com/annapusok731/lookit-stimuli-template/master/test_stimuli/bridget_alexis1.jpg"",""https://raw.githubusercontent.com/annapusok731/lookit-stimuli-template/master/test_stimuli/bridget_bridget1.jpg""]","","","","","","main","3","different","different","true","562","https://raw.githubusercontent.com/annapusok731/composite_face_effect_studies/main/CFE_Adult/aligned/sydney_gabrielle.jpg","https://raw.githubusercontent.com/annapusok731/composite_face_effect_studies/main/CFE_Adult/aligned/gabrielle_sydney.jpg","diff_align","","","","","","","","","","","","","","","","","","","","","","","","","","","","","","","","","","","","","","","","","","","","","","","","","","","","","","","","","","","","","","","","","","","","","","","",""
"null","<div class=""fixation-cross"">+</div>","null","html-keyboard-response","23","71994","0.0-11.0-0.0","r6k7xsxtxk","Thursday 11/20 2:30 PM","[""https://raw.githubusercontent.com/annapusok731/lookit-stimuli-template/master/test_stimuli/bridget_alexis1.jpg"",""https://raw.githubusercontent.com/annapusok731/lookit-stimuli-template/master/test_stimuli/bridget_bridget1.jpg""]","","","","","","","","","","","","","","","","","","","","","","","","","","","","","","","","","","","","","","","","","","","","","","","","","","","","","","","","","","","","","","","","","","","","","","","","","","","","","","","","","","","","","",""
"null","
            <div style=""text-align: center;"">
                <p style=""color: #666; font-size: 20px; margin-top: 10px; "">Trial 4 of 96</p>
                <div class=""face-images"">
                    <img src=""https://raw.githubusercontent.com/annapusok731/composite_face_effect_studies/main/CFE_Adult/misaligned/sandy_sierra.jpg"" alt=""Face 1"">
                    <img src=""https://raw.githubusercontent.com/annapusok731/composite_face_effect_studies/main/CFE_Adult/misaligned/sandy_sandy.jpg"" alt=""Face 2"">
                </div>
                <h2 class=""trial-question"">Are the top parts of the faces the same or different?</h2>
            </div>
        ","null","html-button-response","24","72996","0.0-11.0-1.0","r6k7xsxtxk","Thursday 11/20 2:30 PM","[""https://raw.githubusercontent.com/annapusok731/lookit-stimuli-template/master/test_stimuli/bridget_alexis1.jpg"",""https://raw.githubusercontent.com/annapusok731/lookit-stimuli-template/master/test_stimuli/bridget_bridget1.jpg""]","","","","","","main_viewing","4","","","","","https://raw.githubusercontent.com/annapusok731/composite_face_effect_studies/main/CFE_Adult/misaligned/sandy_sierra.jpg","https://raw.githubusercontent.com/annapusok731/composite_face_effect_studies/main/CFE_Adult/misaligned/sandy_sandy.jpg","","","","","","","","","","","","","","","","","","","","","","","","","","","","","","","","","","","","","","","","","","","","","","","","","","","","","","","","","","","","","","","","","","","","","","","","",""
"528","
                        <div style=""text-align: center;"">
                            <p style=""color: #666; font-size: 20px; margin-top: 10px;"">Trial 4 of 96</p>
                            <h2 class=""trial-question"">Are the top parts of the faces the same or different?</h2>
                        </div>
                    ","0","html-button-response","25","73525","0.0-11.0-2.0","r6k7xsxtxk","Thursday 11/20 2:30 PM","[""https://raw.githubusercontent.com/annapusok731/lookit-stimuli-template/master/test_stimuli/bridget_alexis1.jpg"",""https://raw.githubusercontent.com/annapusok731/lookit-stimuli-template/master/test_stimuli/bridget_bridget1.jpg""]","","","","","","main","4","same","same","true","528","https://raw.githubusercontent.com/annapusok731/composite_face_effect_studies/main/CFE_Adult/misaligned/sandy_sierra.jpg","https://raw.githubusercontent.com/annapusok731/composite_face_effect_studies/main/CFE_Adult/misaligned/sandy_sandy.jpg","same_misaligned","","","","","","","","","","","","","","","","","","","","","","","","","","","","","","","","","","","","","","","","","","","","","","","","","","","","","","","","","","","","","","","","","","","","","","","",""
"null","<div class=""fixation-cross"">+</div>","null","html-keyboard-response","26","74727","0.0-12.0-0.0","r6k7xsxtxk","Thursday 11/20 2:30 PM","[""https://raw.githubusercontent.com/annapusok731/lookit-stimuli-template/master/test_stimuli/bridget_alexis1.jpg"",""https://raw.githubusercontent.com/annapusok731/lookit-stimuli-template/master/test_stimuli/bridget_bridget1.jpg""]","","","","","","","","","","","","","","","","","","","","","","","","","","","","","","","","","","","","","","","","","","","","","","","","","","","","","","","","","","","","","","","","","","","","","","","","","","","","","","","","","","","","","",""
"null","
            <div style=""text-align: center;"">
                <p style=""color: #666; font-size: 20px; margin-top: 10px; "">Trial 5 of 96</p>
                <div class=""face-images"">
                    <img src=""https://raw.githubusercontent.com/annapusok731/composite_face_effect_studies/main/CFE_Adult/misaligned/diana_delilah.jpg"" alt=""Face 1"">
                    <img src=""https://raw.githubusercontent.com/annapusok731/composite_face_effect_studies/main/CFE_Adult/misaligned/delilah_diana.jpg"" alt=""Face 2"">
                </div>
                <h2 class=""trial-question"">Are the top parts of the faces the same or different?</h2>
            </div>
        ","null","html-button-response","27","75730","0.0-12.0-1.0","r6k7xsxtxk","Thursday 11/20 2:30 PM","[""https://raw.githubusercontent.com/annapusok731/lookit-stimuli-template/master/test_stimuli/bridget_alexis1.jpg"",""https://raw.githubusercontent.com/annapusok731/lookit-stimuli-template/master/test_stimuli/bridget_bridget1.jpg""]","","","","","","main_viewing","5","","","","","https://raw.githubusercontent.com/annapusok731/composite_face_effect_studies/main/CFE_Adult/misaligned/diana_delilah.jpg","https://raw.githubusercontent.com/annapusok731/composite_face_effect_studies/main/CFE_Adult/misaligned/delilah_diana.jpg","","","","","","","","","","","","","","","","","","","","","","","","","","","","","","","","","","","","","","","","","","","","","","","","","","","","","","","","","","","","","","","","","","","","","","","","",""
"676","
                        <div style=""text-align: center;"">
                            <p style=""color: #666; font-size: 20px; margin-top: 10px;"">Trial 5 of 96</p>
                            <h2 class=""trial-question"">Are the top parts of the faces the same or different?</h2>
                        </div>
                    ","1","html-button-response","28","76408","0.0-12.0-2.0","r6k7xsxtxk","Thursday 11/20 2:30 PM","[""https://raw.githubusercontent.com/annapusok731/lookit-stimuli-template/master/test_stimuli/bridget_alexis1.jpg"",""https://raw.githubusercontent.com/annapusok731/lookit-stimuli-template/master/test_stimuli/bridget_bridget1.jpg""]","","","","","","main","5","different","different","true","676","https://raw.githubusercontent.com/annapusok731/composite_face_effect_studies/main/CFE_Adult/misaligned/diana_delilah.jpg","https://raw.githubusercontent.com/annapusok731/composite_face_effect_studies/main/CFE_Adult/misaligned/delilah_diana.jpg","diff_misalign","","","","","","","","","","","","","","","","","","","","","","","","","","","","","","","","","","","","","","","","","","","","","","","","","","","","","","","","","","","","","","","","","","","","","","","",""
"null","<div class=""fixation-cross"">+</div>","null","html-keyboard-response","29","77609","0.0-13.0-0.0","r6k7xsxtxk","Thursday 11/20 2:30 PM","[""https://raw.githubusercontent.com/annapusok731/lookit-stimuli-template/master/test_stimuli/bridget_alexis1.jpg"",""https://raw.githubusercontent.com/annapusok731/lookit-stimuli-template/master/test_stimuli/bridget_bridget1.jpg""]","","","","","","","","","","","","","","","","","","","","","","","","","","","","","","","","","","","","","","","","","","","","","","","","","","","","","","","","","","","","","","","","","","","","","","","","","","","","","","","","","","","","","",""
"null","
            <div style=""text-align: center;"">
                <p style=""color: #666; font-size: 20px; margin-top: 10px; "">Trial 6 of 96</p>
                <div class=""face-images"">
                    <img src=""https://raw.githubusercontent.com/annapusok731/composite_face_effect_studies/main/CFE_Adult/aligned/lisa_paige.jpg"" alt=""Face 1"">
                    <img src=""https://raw.githubusercontent.com/annapusok731/composite_face_effect_studies/main/CFE_Adult/aligned/paige_lisa.jpg"" alt=""Face 2"">
                </div>
                <h2 class=""trial-question"">Are the top parts of the faces the same or different?</h2>
            </div>
        ","null","html-button-response","30","78612","0.0-13.0-1.0","r6k7xsxtxk","Thursday 11/20 2:30 PM","[""https://raw.githubusercontent.com/annapusok731/lookit-stimuli-template/master/test_stimuli/bridget_alexis1.jpg"",""https://raw.githubusercontent.com/annapusok731/lookit-stimuli-template/master/test_stimuli/bridget_bridget1.jpg""]","","","","","","main_viewing","6","","","","","https://raw.githubusercontent.com/annapusok731/composite_face_effect_studies/main/CFE_Adult/aligned/lisa_paige.jpg","https://raw.githubusercontent.com/annapusok731/composite_face_effect_studies/main/CFE_Adult/aligned/paige_lisa.jpg","","","","","","","","","","","","","","","","","","","","","","","","","","","","","","","","","","","","","","","","","","","","","","","","","","","","","","","","","","","","","","","","","","","","","","","","",""
"1145","
                        <div style=""text-align: center;"">
                            <p style=""color: #666; font-size: 20px; margin-top: 10px;"">Trial 6 of 96</p>
                            <h2 class=""trial-question"">Are the top parts of the faces the same or different?</h2>
                        </div>
                    ","1","html-button-response","31","79759","0.0-13.0-2.0","r6k7xsxtxk","Thursday 11/20 2:30 PM","[""https://raw.githubusercontent.com/annapusok731/lookit-stimuli-template/master/test_stimuli/bridget_alexis1.jpg"",""https://raw.githubusercontent.com/annapusok731/lookit-stimuli-template/master/test_stimuli/bridget_bridget1.jpg""]","","","","","","main","6","different","different","true","1145","https://raw.githubusercontent.com/annapusok731/composite_face_effect_studies/main/CFE_Adult/aligned/lisa_paige.jpg","https://raw.githubusercontent.com/annapusok731/composite_face_effect_studies/main/CFE_Adult/aligned/paige_lisa.jpg","diff_align","","","","","","","","","","","","","","","","","","","","","","","","","","","","","","","","","","","","","","","","","","","","","","","","","","","","","","","","","","","","","","","","","","","","","","","",""
"null","<div class=""fixation-cross"">+</div>","null","html-keyboard-response","32","80961","0.0-14.0-0.0","r6k7xsxtxk","Thursday 11/20 2:30 PM","[""https://raw.githubusercontent.com/annapusok731/lookit-stimuli-template/master/test_stimuli/bridget_alexis1.jpg"",""https://raw.githubusercontent.com/annapusok731/lookit-stimuli-template/master/test_stimuli/bridget_bridget1.jpg""]","","","","","","","","","","","","","","","","","","","","","","","","","","","","","","","","","","","","","","","","","","","","","","","","","","","","","","","","","","","","","","","","","","","","","","","","","","","","","","","","","","","","","",""
"null","
            <div style=""text-align: center;"">
                <p style=""color: #666; font-size: 20px; margin-top: 10px; "">Trial 7 of 96</p>
                <div class=""face-images"">
                    <img src=""https://raw.githubusercontent.com/annapusok731/composite_face_effect_studies/main/CFE_Adult/misaligned/ellen_velma.jpg"" alt=""Face 1"">
                    <img src=""https://raw.githubusercontent.com/annapusok731/composite_face_effect_studies/main/CFE_Adult/misaligned/velma_ellen.jpg"" alt=""Face 2"">
                </div>
                <h2 class=""trial-question"">Are the top parts of the faces the same or different?</h2>
            </div>
        ","null","html-button-response","33","81963","0.0-14.0-1.0","r6k7xsxtxk","Thursday 11/20 2:30 PM","[""https://raw.githubusercontent.com/annapusok731/lookit-stimuli-template/master/test_stimuli/bridget_alexis1.jpg"",""https://raw.githubusercontent.com/annapusok731/lookit-stimuli-template/master/test_stimuli/bridget_bridget1.jpg""]","","","","","","main_viewing","7","","","","","https://raw.githubusercontent.com/annapusok731/composite_face_effect_studies/main/CFE_Adult/misaligned/ellen_velma.jpg","https://raw.githubusercontent.com/annapusok731/composite_face_effect_studies/main/CFE_Adult/misaligned/velma_ellen.jpg","","","","","","","","","","","","","","","","","","","","","","","","","","","","","","","","","","","","","","","","","","","","","","","","","","","","","","","","","","","","","","","","","","","","","","","","",""
"495","
                        <div style=""text-align: center;"">
                            <p style=""color: #666; font-size: 20px; margin-top: 10px;"">Trial 7 of 96</p>
                            <h2 class=""trial-question"">Are the top parts of the faces the same or different?</h2>
                        </div>
                    ","1","html-button-response","34","82459","0.0-14.0-2.0","r6k7xsxtxk","Thursday 11/20 2:30 PM","[""https://raw.githubusercontent.com/annapusok731/lookit-stimuli-template/master/test_stimuli/bridget_alexis1.jpg"",""https://raw.githubusercontent.com/annapusok731/lookit-stimuli-template/master/test_stimuli/bridget_bridget1.jpg""]","","","","","","main","7","different","different","true","495","https://raw.githubusercontent.com/annapusok731/composite_face_effect_studies/main/CFE_Adult/misaligned/ellen_velma.jpg","https://raw.githubusercontent.com/annapusok731/composite_face_effect_studies/main/CFE_Adult/misaligned/velma_ellen.jpg","diff_misalign","","","","","","","","","","","","","","","","","","","","","","","","","","","","","","","","","","","","","","","","","","","","","","","","","","","","","","","","","","","","","","","","","","","","","","","",""
"null","<div class=""fixation-cross"">+</div>","null","html-keyboard-response","35","83661","0.0-15.0-0.0","r6k7xsxtxk","Thursday 11/20 2:30 PM","[""https://raw.githubusercontent.com/annapusok731/lookit-stimuli-template/master/test_stimuli/bridget_alexis1.jpg"",""https://raw.githubusercontent.com/annapusok731/lookit-stimuli-template/master/test_stimuli/bridget_bridget1.jpg""]","","","","","","","","","","","","","","","","","","","","","","","","","","","","","","","","","","","","","","","","","","","","","","","","","","","","","","","","","","","","","","","","","","","","","","","","","","","","","","","","","","","","","",""
"null","
            <div style=""text-align: center;"">
                <p style=""color: #666; font-size: 20px; margin-top: 10px; "">Trial 8 of 96</p>
                <div class=""face-images"">
                    <img src=""https://raw.githubusercontent.com/annapusok731/composite_face_effect_studies/main/CFE_Adult/misaligned/grace_hanna.jpg"" alt=""Face 1"">
                    <img src=""https://raw.githubusercontent.com/annapusok731/composite_face_effect_studies/main/CFE_Adult/misaligned/grace_grace.jpg"" alt=""Face 2"">
                </div>
                <h2 class=""trial-question"">Are the top parts of the faces the same or different?</h2>
            </div>
        ","null","html-button-response","36","84663","0.0-15.0-1.0","r6k7xsxtxk","Thursday 11/20 2:30 PM","[""https://raw.githubusercontent.com/annapusok731/lookit-stimuli-template/master/test_stimuli/bridget_alexis1.jpg"",""https://raw.githubusercontent.com/annapusok731/lookit-stimuli-template/master/test_stimuli/bridget_bridget1.jpg""]","","","","","","main_viewing","8","","","","","https://raw.githubusercontent.com/annapusok731/composite_face_effect_studies/main/CFE_Adult/misaligned/grace_hanna.jpg","https://raw.githubusercontent.com/annapusok731/composite_face_effect_studies/main/CFE_Adult/misaligned/grace_grace.jpg","","","","","","","","","","","","","","","","","","","","","","","","","","","","","","","","","","","","","","","","","","","","","","","","","","","","","","","","","","","","","","","","","","","","","","","","",""
"626","
                        <div style=""text-align: center;"">
                            <p style=""color: #666; font-size: 20px; margin-top: 10px;"">Trial 8 of 96</p>
                            <h2 class=""trial-question"">Are the top parts of the faces the same or different?</h2>
                        </div>
                    ","0","html-button-response","37","85290","0.0-15.0-2.0","r6k7xsxtxk","Thursday 11/20 2:30 PM","[""https://raw.githubusercontent.com/annapusok731/lookit-stimuli-template/master/test_stimuli/bridget_alexis1.jpg"",""https://raw.githubusercontent.com/annapusok731/lookit-stimuli-template/master/test_stimuli/bridget_bridget1.jpg""]","","","","","","main","8","same","same","true","626","https://raw.githubusercontent.com/annapusok731/composite_face_effect_studies/main/CFE_Adult/misaligned/grace_hanna.jpg","https://raw.githubusercontent.com/annapusok731/composite_face_effect_studies/main/CFE_Adult/misaligned/grace_grace.jpg","same_misaligned","","","","","","","","","","","","","","","","","","","","","","","","","","","","","","","","","","","","","","","","","","","","","","","","","","","","","","","","","","","","","","","","","","","","","","","",""
"null","<div class=""fixation-cross"">+</div>","null","html-keyboard-response","38","86492","0.0-16.0-0.0","r6k7xsxtxk","Thursday 11/20 2:30 PM","[""https://raw.githubusercontent.com/annapusok731/lookit-stimuli-template/master/test_stimuli/bridget_alexis1.jpg"",""https://raw.githubusercontent.com/annapusok731/lookit-stimuli-template/master/test_stimuli/bridget_bridget1.jpg""]","","","","","","","","","","","","","","","","","","","","","","","","","","","","","","","","","","","","","","","","","","","","","","","","","","","","","","","","","","","","","","","","","","","","","","","","","","","","","","","","","","","","","",""
"null","
            <div style=""text-align: center;"">
                <p style=""color: #666; font-size: 20px; margin-top: 10px; "">Trial 9 of 96</p>
                <div class=""face-images"">
                    <img src=""https://raw.githubusercontent.com/annapusok731/composite_face_effect_studies/main/CFE_Adult/misaligned/cameron_wilson.jpg"" alt=""Face 1"">
                    <img src=""https://raw.githubusercontent.com/annapusok731/composite_face_effect_studies/main/CFE_Adult/misaligned/wilson_cameron.jpg"" alt=""Face 2"">
                </div>
                <h2 class=""trial-question"">Are the top parts of the faces the same or different?</h2>
            </div>
        ","null","html-button-response","39","87494","0.0-16.0-1.0","r6k7xsxtxk","Thursday 11/20 2:30 PM","[""https://raw.githubusercontent.com/annapusok731/lookit-stimuli-template/master/test_stimuli/bridget_alexis1.jpg"",""https://raw.githubusercontent.com/annapusok731/lookit-stimuli-template/master/test_stimuli/bridget_bridget1.jpg""]","","","","","","main_viewing","9","","","","","https://raw.githubusercontent.com/annapusok731/composite_face_effect_studies/main/CFE_Adult/misaligned/cameron_wilson.jpg","https://raw.githubusercontent.com/annapusok731/composite_face_effect_studies/main/CFE_Adult/misaligned/wilson_cameron.jpg","","","","","","","","","","","","","","","","","","","","","","","","","","","","","","","","","","","","","","","","","","","","","","","","","","","","","","","","","","","","","","","","","","","","","","","","",""
"762","
                        <div style=""text-align: center;"">
                            <p style=""color: #666; font-size: 20px; margin-top: 10px;"">Trial 9 of 96</p>
                            <h2 class=""trial-question"">Are the top parts of the faces the same or different?</h2>
                        </div>
                    ","1","html-button-response","40","88257","0.0-16.0-2.0","r6k7xsxtxk","Thursday 11/20 2:30 PM","[""https://raw.githubusercontent.com/annapusok731/lookit-stimuli-template/master/test_stimuli/bridget_alexis1.jpg"",""https://raw.githubusercontent.com/annapusok731/lookit-stimuli-template/master/test_stimuli/bridget_bridget1.jpg""]","","","","","","main","9","different","different","true","762","https://raw.githubusercontent.com/annapusok731/composite_face_effect_studies/main/CFE_Adult/misaligned/cameron_wilson.jpg","https://raw.githubusercontent.com/annapusok731/composite_face_effect_studies/main/CFE_Adult/misaligned/wilson_cameron.jpg","diff_misalign","","","","","","","","","","","","","","","","","","","","","","","","","","","","","","","","","","","","","","","","","","","","","","","","","","","","","","","","","","","","","","","","","","","","","","","",""
"null","<div class=""fixation-cross"">+</div>","null","html-keyboard-response","41","89459","0.0-17.0-0.0","r6k7xsxtxk","Thursday 11/20 2:30 PM","[""https://raw.githubusercontent.com/annapusok731/lookit-stimuli-template/master/test_stimuli/bridget_alexis1.jpg"",""https://raw.githubusercontent.com/annapusok731/lookit-stimuli-template/master/test_stimuli/bridget_bridget1.jpg""]","","","","","","","","","","","","","","","","","","","","","","","","","","","","","","","","","","","","","","","","","","","","","","","","","","","","","","","","","","","","","","","","","","","","","","","","","","","","","","","","","","","","","",""
"null","
            <div style=""text-align: center;"">
                <p style=""color: #666; font-size: 20px; margin-top: 10px; "">Trial 10 of 96</p>
                <div class=""face-images"">
                    <img src=""https://raw.githubusercontent.com/annapusok731/composite_face_effect_studies/main/CFE_Adult/misaligned/margaret_penelope.jpg"" alt=""Face 1"">
                    <img src=""https://raw.githubusercontent.com/annapusok731/composite_face_effect_studies/main/CFE_Adult/misaligned/margaret_margaret.jpg"" alt=""Face 2"">
                </div>
                <h2 class=""trial-question"">Are the top parts of the faces the same or different?</h2>
            </div>
        ","null","html-button-response","42","90461","0.0-17.0-1.0","r6k7xsxtxk","Thursday 11/20 2:30 PM","[""https://raw.githubusercontent.com/annapusok731/lookit-stimuli-template/master/test_stimuli/bridget_alexis1.jpg"",""https://raw.githubusercontent.com/annapusok731/lookit-stimuli-template/master/test_stimuli/bridget_bridget1.jpg""]","","","","","","main_viewing","10","","","","","https://raw.githubusercontent.com/annapusok731/composite_face_effect_studies/main/CFE_Adult/misaligned/margaret_penelope.jpg","https://raw.githubusercontent.com/annapusok731/composite_face_effect_studies/main/CFE_Adult/misaligned/margaret_margaret.jpg","","","","","","","","","","","","","","","","","","","","","","","","","","","","","","","","","","","","","","","","","","","","","","","","","","","","","","","","","","","","","","","","","","","","","","","","",""
"461","
                        <div style=""text-align: center;"">
                            <p style=""color: #666; font-size: 20px; margin-top: 10px;"">Trial 10 of 96</p>
                            <h2 class=""trial-question"">Are the top parts of the faces the same or different?</h2>
                        </div>
                    ","0","html-button-response","43","90923","0.0-17.0-2.0","r6k7xsxtxk","Thursday 11/20 2:30 PM","[""https://raw.githubusercontent.com/annapusok731/lookit-stimuli-template/master/test_stimuli/bridget_alexis1.jpg"",""https://raw.githubusercontent.com/annapusok731/lookit-stimuli-template/master/test_stimuli/bridget_bridget1.jpg""]","","","","","","main","10","same","same","true","461","https://raw.githubusercontent.com/annapusok731/composite_face_effect_studies/main/CFE_Adult/misaligned/margaret_penelope.jpg","https://raw.githubusercontent.com/annapusok731/composite_face_effect_studies/main/CFE_Adult/misaligned/margaret_margaret.jpg","same_misaligned","","","","","","","","","","","","","","","","","","","","","","","","","","","","","","","","","","","","","","","","","","","","","","","","","","","","","","","","","","","","","","","","","","","","","","","",""
"null","<div class=""fixation-cross"">+</div>","null","html-keyboard-response","44","92125","0.0-18.0-0.0","r6k7xsxtxk","Thursday 11/20 2:30 PM","[""https://raw.githubusercontent.com/annapusok731/lookit-stimuli-template/master/test_stimuli/bridget_alexis1.jpg"",""https://raw.githubusercontent.com/annapusok731/lookit-stimuli-template/master/test_stimuli/bridget_bridget1.jpg""]","","","","","","","","","","","","","","","","","","","","","","","","","","","","","","","","","","","","","","","","","","","","","","","","","","","","","","","","","","","","","","","","","","","","","","","","","","","","","","","","","","","","","",""
"null","
            <div style=""text-align: center;"">
                <p style=""color: #666; font-size: 20px; margin-top: 10px; "">Trial 11 of 96</p>
                <div class=""face-images"">
                    <img src=""https://raw.githubusercontent.com/annapusok731/composite_face_effect_studies/main/CFE_Adult/aligned/ruby_rachel.jpg"" alt=""Face 1"">
                    <img src=""https://raw.githubusercontent.com/annapusok731/composite_face_effect_studies/main/CFE_Adult/aligned/ruby_ruby.jpg"" alt=""Face 2"">
                </div>
                <h2 class=""trial-question"">Are the top parts of the faces the same or different?</h2>
            </div>
        ","null","html-button-response","45","93126","0.0-18.0-1.0","r6k7xsxtxk","Thursday 11/20 2:30 PM","[""https://raw.githubusercontent.com/annapusok731/lookit-stimuli-template/master/test_stimuli/bridget_alexis1.jpg"",""https://raw.githubusercontent.com/annapusok731/lookit-stimuli-template/master/test_stimuli/bridget_bridget1.jpg""]","","","","","","main_viewing","11","","","","","https://raw.githubusercontent.com/annapusok731/composite_face_effect_studies/main/CFE_Adult/aligned/ruby_rachel.jpg","https://raw.githubusercontent.com/annapusok731/composite_face_effect_studies/main/CFE_Adult/aligned/ruby_ruby.jpg","","","","","","","","","","","","","","","","","","","","","","","","","","","","","","","","","","","","","","","","","","","","","","","","","","","","","","","","","","","","","","","","","","","","","","","","",""
"513","
                        <div style=""text-align: center;"">
                            <p style=""color: #666; font-size: 20px; margin-top: 10px;"">Trial 11 of 96</p>
                            <h2 class=""trial-question"">Are the top parts of the faces the same or different?</h2>
                        </div>
                    ","0","html-button-response","46","93640","0.0-18.0-2.0","r6k7xsxtxk","Thursday 11/20 2:30 PM","[""https://raw.githubusercontent.com/annapusok731/lookit-stimuli-template/master/test_stimuli/bridget_alexis1.jpg"",""https://raw.githubusercontent.com/annapusok731/lookit-stimuli-template/master/test_stimuli/bridget_bridget1.jpg""]","","","","","","main","11","same","same","true","513","https://raw.githubusercontent.com/annapusok731/composite_face_effect_studies/main/CFE_Adult/aligned/ruby_rachel.jpg","https://raw.githubusercontent.com/annapusok731/composite_face_effect_studies/main/CFE_Adult/aligned/ruby_ruby.jpg","same_aligned","","","","","","","","","","","","","","","","","","","","","","","","","","","","","","","","","","","","","","","","","","","","","","","","","","","","","","","","","","","","","","","","","","","","","","","",""
"null","<div class=""fixation-cross"">+</div>","null","html-keyboard-response","47","94842","0.0-19.0-0.0","r6k7xsxtxk","Thursday 11/20 2:30 PM","[""https://raw.githubusercontent.com/annapusok731/lookit-stimuli-template/master/test_stimuli/bridget_alexis1.jpg"",""https://raw.githubusercontent.com/annapusok731/lookit-stimuli-template/master/test_stimuli/bridget_bridget1.jpg""]","","","","","","","","","","","","","","","","","","","","","","","","","","","","","","","","","","","","","","","","","","","","","","","","","","","","","","","","","","","","","","","","","","","","","","","","","","","","","","","","","","","","","",""
"null","
            <div style=""text-align: center;"">
                <p style=""color: #666; font-size: 20px; margin-top: 10px; "">Trial 12 of 96</p>
                <div class=""face-images"">
                    <img src=""https://raw.githubusercontent.com/annapusok731/composite_face_effect_studies/main/CFE_Adult/aligned/francesca_francesca.jpg"" alt=""Face 1"">
                    <img src=""https://raw.githubusercontent.com/annapusok731/composite_face_effect_studies/main/CFE_Adult/aligned/francesca_astra.jpg"" alt=""Face 2"">
                </div>
                <h2 class=""trial-question"">Are the top parts of the faces the same or different?</h2>
            </div>
        ","null","html-button-response","48","95844","0.0-19.0-1.0","r6k7xsxtxk","Thursday 11/20 2:30 PM","[""https://raw.githubusercontent.com/annapusok731/lookit-stimuli-template/master/test_stimuli/bridget_alexis1.jpg"",""https://raw.githubusercontent.com/annapusok731/lookit-stimuli-template/master/test_stimuli/bridget_bridget1.jpg""]","","","","","","main_viewing","12","","","","","https://raw.githubusercontent.com/annapusok731/composite_face_effect_studies/main/CFE_Adult/aligned/francesca_francesca.jpg","https://raw.githubusercontent.com/annapusok731/composite_face_effect_studies/main/CFE_Adult/aligned/francesca_astra.jpg","","","","","","","","","","","","","","","","","","","","","","","","","","","","","","","","","","","","","","","","","","","","","","","","","","","","","","","","","","","","","","","","","","","","","","","","",""
"847","
                        <div style=""text-align: center;"">
                            <p style=""color: #666; font-size: 20px; margin-top: 10px;"">Trial 12 of 96</p>
                            <h2 class=""trial-question"">Are the top parts of the faces the same or different?</h2>
                        </div>
                    ","1","html-button-response","49","96692","0.0-19.0-2.0","r6k7xsxtxk","Thursday 11/20 2:30 PM","[""https://raw.githubusercontent.com/annapusok731/lookit-stimuli-template/master/test_stimuli/bridget_alexis1.jpg"",""https://raw.githubusercontent.com/annapusok731/lookit-stimuli-template/master/test_stimuli/bridget_bridget1.jpg""]","","","","","","main","12","same","different","false","847","https://raw.githubusercontent.com/annapusok731/composite_face_effect_studies/main/CFE_Adult/aligned/francesca_francesca.jpg","https://raw.githubusercontent.com/annapusok731/composite_face_effect_studies/main/CFE_Adult/aligned/francesca_astra.jpg","same_aligned","","","","","","","","","","","","","","","","","","","","","","","","","","","","","","","","","","","","","","","","","","","","","","","","","","","","","","","","","","","","","","","","","","","","","","","",""
"null","<div class=""fixation-cross"">+</div>","null","html-keyboard-response","50","97894","0.0-20.0-0.0","r6k7xsxtxk","Thursday 11/20 2:30 PM","[""https://raw.githubusercontent.com/annapusok731/lookit-stimuli-template/master/test_stimuli/bridget_alexis1.jpg"",""https://raw.githubusercontent.com/annapusok731/lookit-stimuli-template/master/test_stimuli/bridget_bridget1.jpg""]","","","","","","","","","","","","","","","","","","","","","","","","","","","","","","","","","","","","","","","","","","","","","","","","","","","","","","","","","","","","","","","","","","","","","","","","","","","","","","","","","","","","","",""
"null","
            <div style=""text-align: center;"">
                <p style=""color: #666; font-size: 20px; margin-top: 10px; "">Trial 13 of 96</p>
                <div class=""face-images"">
                    <img src=""https://raw.githubusercontent.com/annapusok731/composite_face_effect_studies/main/CFE_Adult/aligned/rick_alex.jpg"" alt=""Face 1"">
                    <img src=""https://raw.githubusercontent.com/annapusok731/composite_face_effect_studies/main/CFE_Adult/aligned/rick_rick.jpg"" alt=""Face 2"">
                </div>
                <h2 class=""trial-question"">Are the top parts of the faces the same or different?</h2>
            </div>
        ","null","html-button-response","51","98896","0.0-20.0-1.0","r6k7xsxtxk","Thursday 11/20 2:30 PM","[""https://raw.githubusercontent.com/annapusok731/lookit-stimuli-template/master/test_stimuli/bridget_alexis1.jpg"",""https://raw.githubusercontent.com/annapusok731/lookit-stimuli-template/master/test_stimuli/bridget_bridget1.jpg""]","","","","","","main_viewing","13","","","","","https://raw.githubusercontent.com/annapusok731/composite_face_effect_studies/main/CFE_Adult/aligned/rick_alex.jpg","https://raw.githubusercontent.com/annapusok731/composite_face_effect_studies/main/CFE_Adult/aligned/rick_rick.jpg","","","","","","","","","","","","","","","","","","","","","","","","","","","","","","","","","","","","","","","","","","","","","","","","","","","","","","","","","","","","","","","","","","","","","","","","",""
"510","
                        <div style=""text-align: center;"">
                            <p style=""color: #666; font-size: 20px; margin-top: 10px;"">Trial 13 of 96</p>
                            <h2 class=""trial-question"">Are the top parts of the faces the same or different?</h2>
                        </div>
                    ","0","html-button-response","52","99407","0.0-20.0-2.0","r6k7xsxtxk","Thursday 11/20 2:30 PM","[""https://raw.githubusercontent.com/annapusok731/lookit-stimuli-template/master/test_stimuli/bridget_alexis1.jpg"",""https://raw.githubusercontent.com/annapusok731/lookit-stimuli-template/master/test_stimuli/bridget_bridget1.jpg""]","","","","","","main","13","same","same","true","510","https://raw.githubusercontent.com/annapusok731/composite_face_effect_studies/main/CFE_Adult/aligned/rick_alex.jpg","https://raw.githubusercontent.com/annapusok731/composite_face_effect_studies/main/CFE_Adult/aligned/rick_rick.jpg","same_aligned","","","","","","","","","","","","","","","","","","","","","","","","","","","","","","","","","","","","","","","","","","","","","","","","","","","","","","","","","","","","","","","","","","","","","","","",""
"null","<div class=""fixation-cross"">+</div>","null","html-keyboard-response","53","100609","0.0-21.0-0.0","r6k7xsxtxk","Thursday 11/20 2:30 PM","[""https://raw.githubusercontent.com/annapusok731/lookit-stimuli-template/master/test_stimuli/bridget_alexis1.jpg"",""https://raw.githubusercontent.com/annapusok731/lookit-stimuli-template/master/test_stimuli/bridget_bridget1.jpg""]","","","","","","","","","","","","","","","","","","","","","","","","","","","","","","","","","","","","","","","","","","","","","","","","","","","","","","","","","","","","","","","","","","","","","","","","","","","","","","","","","","","","","",""
"null","
            <div style=""text-align: center;"">
                <p style=""color: #666; font-size: 20px; margin-top: 10px; "">Trial 14 of 96</p>
                <div class=""face-images"">
                    <img src=""https://raw.githubusercontent.com/annapusok731/composite_face_effect_studies/main/CFE_Adult/aligned/gill_frank.jpg"" alt=""Face 1"">
                    <img src=""https://raw.githubusercontent.com/annapusok731/composite_face_effect_studies/main/CFE_Adult/aligned/gill_gill.jpg"" alt=""Face 2"">
                </div>
                <h2 class=""trial-question"">Are the top parts of the faces the same or different?</h2>
            </div>
        ","null","html-button-response","54","101612","0.0-21.0-1.0","r6k7xsxtxk","Thursday 11/20 2:30 PM","[""https://raw.githubusercontent.com/annapusok731/lookit-stimuli-template/master/test_stimuli/bridget_alexis1.jpg"",""https://raw.githubusercontent.com/annapusok731/lookit-stimuli-template/master/test_stimuli/bridget_bridget1.jpg""]","","","","","","main_viewing","14","","","","","https://raw.githubusercontent.com/annapusok731/composite_face_effect_studies/main/CFE_Adult/aligned/gill_frank.jpg","https://raw.githubusercontent.com/annapusok731/composite_face_effect_studies/main/CFE_Adult/aligned/gill_gill.jpg","","","","","","","","","","","","","","","","","","","","","","","","","","","","","","","","","","","","","","","","","","","","","","","","","","","","","","","","","","","","","","","","","","","","","","","","",""
"661","
                        <div style=""text-align: center;"">
                            <p style=""color: #666; font-size: 20px; margin-top: 10px;"">Trial 14 of 96</p>
                            <h2 class=""trial-question"">Are the top parts of the faces the same or different?</h2>
                        </div>
                    ","0","html-button-response","55","102274","0.0-21.0-2.0","r6k7xsxtxk","Thursday 11/20 2:30 PM","[""https://raw.githubusercontent.com/annapusok731/lookit-stimuli-template/master/test_stimuli/bridget_alexis1.jpg"",""https://raw.githubusercontent.com/annapusok731/lookit-stimuli-template/master/test_stimuli/bridget_bridget1.jpg""]","","","","","","main","14","same","same","true","661","https://raw.githubusercontent.com/annapusok731/composite_face_effect_studies/main/CFE_Adult/aligned/gill_frank.jpg","https://raw.githubusercontent.com/annapusok731/composite_face_effect_studies/main/CFE_Adult/aligned/gill_gill.jpg","same_aligned","","","","","","","","","","","","","","","","","","","","","","","","","","","","","","","","","","","","","","","","","","","","","","","","","","","","","","","","","","","","","","","","","","","","","","","",""
"null","<div class=""fixation-cross"">+</div>","null","html-keyboard-response","56","103476","0.0-22.0-0.0","r6k7xsxtxk","Thursday 11/20 2:30 PM","[""https://raw.githubusercontent.com/annapusok731/lookit-stimuli-template/master/test_stimuli/bridget_alexis1.jpg"",""https://raw.githubusercontent.com/annapusok731/lookit-stimuli-template/master/test_stimuli/bridget_bridget1.jpg""]","","","","","","","","","","","","","","","","","","","","","","","","","","","","","","","","","","","","","","","","","","","","","","","","","","","","","","","","","","","","","","","","","","","","","","","","","","","","","","","","","","","","","",""
"null","
            <div style=""text-align: center;"">
                <p style=""color: #666; font-size: 20px; margin-top: 10px; "">Trial 15 of 96</p>
                <div class=""face-images"">
                    <img src=""https://raw.githubusercontent.com/annapusok731/composite_face_effect_studies/main/CFE_Adult/aligned/sierra_sandy.jpg"" alt=""Face 1"">
                    <img src=""https://raw.githubusercontent.com/annapusok731/composite_face_effect_studies/main/CFE_Adult/aligned/sierra_sierra.jpg"" alt=""Face 2"">
                </div>
                <h2 class=""trial-question"">Are the top parts of the faces the same or different?</h2>
            </div>
        ","null","html-button-response","57","104478","0.0-22.0-1.0","r6k7xsxtxk","Thursday 11/20 2:30 PM","[""https://raw.githubusercontent.com/annapusok731/lookit-stimuli-template/master/test_stimuli/bridget_alexis1.jpg"",""https://raw.githubusercontent.com/annapusok731/lookit-stimuli-template/master/test_stimuli/bridget_bridget1.jpg""]","","","","","","main_viewing","15","","","","","https://raw.githubusercontent.com/annapusok731/composite_face_effect_studies/main/CFE_Adult/aligned/sierra_sandy.jpg","https://raw.githubusercontent.com/annapusok731/composite_face_effect_studies/main/CFE_Adult/aligned/sierra_sierra.jpg","","","","","","","","","","","","","","","","","","","","","","","","","","","","","","","","","","","","","","","","","","","","","","","","","","","","","","","","","","","","","","","","","","","","","","","","",""
"443","
                        <div style=""text-align: center;"">
                            <p style=""color: #666; font-size: 20px; margin-top: 10px;"">Trial 15 of 96</p>
                            <h2 class=""trial-question"">Are the top parts of the faces the same or different?</h2>
                        </div>
                    ","0","html-button-response","58","104923","0.0-22.0-2.0","r6k7xsxtxk","Thursday 11/20 2:30 PM","[""https://raw.githubusercontent.com/annapusok731/lookit-stimuli-template/master/test_stimuli/bridget_alexis1.jpg"",""https://raw.githubusercontent.com/annapusok731/lookit-stimuli-template/master/test_stimuli/bridget_bridget1.jpg""]","","","","","","main","15","same","same","true","443","https://raw.githubusercontent.com/annapusok731/composite_face_effect_studies/main/CFE_Adult/aligned/sierra_sandy.jpg","https://raw.githubusercontent.com/annapusok731/composite_face_effect_studies/main/CFE_Adult/aligned/sierra_sierra.jpg","same_aligned","","","","","","","","","","","","","","","","","","","","","","","","","","","","","","","","","","","","","","","","","","","","","","","","","","","","","","","","","","","","","","","","","","","","","","","",""
"null","<div class=""fixation-cross"">+</div>","null","html-keyboard-response","59","106125","0.0-23.0-0.0","r6k7xsxtxk","Thursday 11/20 2:30 PM","[""https://raw.githubusercontent.com/annapusok731/lookit-stimuli-template/master/test_stimuli/bridget_alexis1.jpg"",""https://raw.githubusercontent.com/annapusok731/lookit-stimuli-template/master/test_stimuli/bridget_bridget1.jpg""]","","","","","","","","","","","","","","","","","","","","","","","","","","","","","","","","","","","","","","","","","","","","","","","","","","","","","","","","","","","","","","","","","","","","","","","","","","","","","","","","","","","","","",""
"null","
            <div style=""text-align: center;"">
                <p style=""color: #666; font-size: 20px; margin-top: 10px; "">Trial 16 of 96</p>
                <div class=""face-images"">
                    <img src=""https://raw.githubusercontent.com/annapusok731/composite_face_effect_studies/main/CFE_Adult/misaligned/gage_collin.jpg"" alt=""Face 1"">
                    <img src=""https://raw.githubusercontent.com/annapusok731/composite_face_effect_studies/main/CFE_Adult/misaligned/gage_gage.jpg"" alt=""Face 2"">
                </div>
                <h2 class=""trial-question"">Are the top parts of the faces the same or different?</h2>
            </div>
        ","null","html-button-response","60","107127","0.0-23.0-1.0","r6k7xsxtxk","Thursday 11/20 2:30 PM","[""https://raw.githubusercontent.com/annapusok731/lookit-stimuli-template/master/test_stimuli/bridget_alexis1.jpg"",""https://raw.githubusercontent.com/annapusok731/lookit-stimuli-template/master/test_stimuli/bridget_bridget1.jpg""]","","","","","","main_viewing","16","","","","","https://raw.githubusercontent.com/annapusok731/composite_face_effect_studies/main/CFE_Adult/misaligned/gage_collin.jpg","https://raw.githubusercontent.com/annapusok731/composite_face_effect_studies/main/CFE_Adult/misaligned/gage_gage.jpg","","","","","","","","","","","","","","","","","","","","","","","","","","","","","","","","","","","","","","","","","","","","","","","","","","","","","","","","","","","","","","","","","","","","","","","","",""
"429","
                        <div style=""text-align: center;"">
                            <p style=""color: #666; font-size: 20px; margin-top: 10px;"">Trial 16 of 96</p>
                            <h2 class=""trial-question"">Are the top parts of the faces the same or different?</h2>
                        </div>
                    ","0","html-button-response","61","107558","0.0-23.0-2.0","r6k7xsxtxk","Thursday 11/20 2:30 PM","[""https://raw.githubusercontent.com/annapusok731/lookit-stimuli-template/master/test_stimuli/bridget_alexis1.jpg"",""https://raw.githubusercontent.com/annapusok731/lookit-stimuli-template/master/test_stimuli/bridget_bridget1.jpg""]","","","","","","main","16","same","same","true","429","https://raw.githubusercontent.com/annapusok731/composite_face_effect_studies/main/CFE_Adult/misaligned/gage_collin.jpg","https://raw.githubusercontent.com/annapusok731/composite_face_effect_studies/main/CFE_Adult/misaligned/gage_gage.jpg","same_misaligned","","","","","","","","","","","","","","","","","","","","","","","","","","","","","","","","","","","","","","","","","","","","","","","","","","","","","","","","","","","","","","","","","","","","","","","",""
"null","<div class=""fixation-cross"">+</div>","null","html-keyboard-response","62","108760","0.0-24.0-0.0","r6k7xsxtxk","Thursday 11/20 2:30 PM","[""https://raw.githubusercontent.com/annapusok731/lookit-stimuli-template/master/test_stimuli/bridget_alexis1.jpg"",""https://raw.githubusercontent.com/annapusok731/lookit-stimuli-template/master/test_stimuli/bridget_bridget1.jpg""]","","","","","","","","","","","","","","","","","","","","","","","","","","","","","","","","","","","","","","","","","","","","","","","","","","","","","","","","","","","","","","","","","","","","","","","","","","","","","","","","","","","","","",""
"null","
            <div style=""text-align: center;"">
                <p style=""color: #666; font-size: 20px; margin-top: 10px; "">Trial 17 of 96</p>
                <div class=""face-images"">
                    <img src=""https://raw.githubusercontent.com/annapusok731/composite_face_effect_studies/main/CFE_Adult/misaligned/sadie_sadie.jpg"" alt=""Face 1"">
                    <img src=""https://raw.githubusercontent.com/annapusok731/composite_face_effect_studies/main/CFE_Adult/misaligned/sadie_lucy.jpg"" alt=""Face 2"">
                </div>
                <h2 class=""trial-question"">Are the top parts of the faces the same or different?</h2>
            </div>
        ","null","html-button-response","63","109762","0.0-24.0-1.0","r6k7xsxtxk","Thursday 11/20 2:30 PM","[""https://raw.githubusercontent.com/annapusok731/lookit-stimuli-template/master/test_stimuli/bridget_alexis1.jpg"",""https://raw.githubusercontent.com/annapusok731/lookit-stimuli-template/master/test_stimuli/bridget_bridget1.jpg""]","","","","","","main_viewing","17","","","","","https://raw.githubusercontent.com/annapusok731/composite_face_effect_studies/main/CFE_Adult/misaligned/sadie_sadie.jpg","https://raw.githubusercontent.com/annapusok731/composite_face_effect_studies/main/CFE_Adult/misaligned/sadie_lucy.jpg","","","","","","","","","","","","","","","","","","","","","","","","","","","","","","","","","","","","","","","","","","","","","","","","","","","","","","","","","","","","","","","","","","","","","","","","",""
"461","
                        <div style=""text-align: center;"">
                            <p style=""color: #666; font-size: 20px; margin-top: 10px;"">Trial 17 of 96</p>
                            <h2 class=""trial-question"">Are the top parts of the faces the same or different?</h2>
                        </div>
                    ","0","html-button-response","64","110224","0.0-24.0-2.0","r6k7xsxtxk","Thursday 11/20 2:30 PM","[""https://raw.githubusercontent.com/annapusok731/lookit-stimuli-template/master/test_stimuli/bridget_alexis1.jpg"",""https://raw.githubusercontent.com/annapusok731/lookit-stimuli-template/master/test_stimuli/bridget_bridget1.jpg""]","","","","","","main","17","same","same","true","461","https://raw.githubusercontent.com/annapusok731/composite_face_effect_studies/main/CFE_Adult/misaligned/sadie_sadie.jpg","https://raw.githubusercontent.com/annapusok731/composite_face_effect_studies/main/CFE_Adult/misaligned/sadie_lucy.jpg","same_misaligned","","","","","","","","","","","","","","","","","","","","","","","","","","","","","","","","","","","","","","","","","","","","","","","","","","","","","","","","","","","","","","","","","","","","","","","",""
"null","<div class=""fixation-cross"">+</div>","null","html-keyboard-response","65","111426","0.0-25.0-0.0","r6k7xsxtxk","Thursday 11/20 2:30 PM","[""https://raw.githubusercontent.com/annapusok731/lookit-stimuli-template/master/test_stimuli/bridget_alexis1.jpg"",""https://raw.githubusercontent.com/annapusok731/lookit-stimuli-template/master/test_stimuli/bridget_bridget1.jpg""]","","","","","","","","","","","","","","","","","","","","","","","","","","","","","","","","","","","","","","","","","","","","","","","","","","","","","","","","","","","","","","","","","","","","","","","","","","","","","","","","","","","","","",""
"null","
            <div style=""text-align: center;"">
                <p style=""color: #666; font-size: 20px; margin-top: 10px; "">Trial 18 of 96</p>
                <div class=""face-images"">
                    <img src=""https://raw.githubusercontent.com/annapusok731/composite_face_effect_studies/main/CFE_Adult/misaligned/carson_otto.jpg"" alt=""Face 1"">
                    <img src=""https://raw.githubusercontent.com/annapusok731/composite_face_effect_studies/main/CFE_Adult/misaligned/otto_carson.jpg"" alt=""Face 2"">
                </div>
                <h2 class=""trial-question"">Are the top parts of the faces the same or different?</h2>
            </div>
        ","null","html-button-response","66","112428","0.0-25.0-1.0","r6k7xsxtxk","Thursday 11/20 2:30 PM","[""https://raw.githubusercontent.com/annapusok731/lookit-stimuli-template/master/test_stimuli/bridget_alexis1.jpg"",""https://raw.githubusercontent.com/annapusok731/lookit-stimuli-template/master/test_stimuli/bridget_bridget1.jpg""]","","","","","","main_viewing","18","","","","","https://raw.githubusercontent.com/annapusok731/composite_face_effect_studies/main/CFE_Adult/misaligned/carson_otto.jpg","https://raw.githubusercontent.com/annapusok731/composite_face_effect_studies/main/CFE_Adult/misaligned/otto_carson.jpg","","","","","","","","","","","","","","","","","","","","","","","","","","","","","","","","","","","","","","","","","","","","","","","","","","","","","","","","","","","","","","","","","","","","","","","","",""
"545","
                        <div style=""text-align: center;"">
                            <p style=""color: #666; font-size: 20px; margin-top: 10px;"">Trial 18 of 96</p>
                            <h2 class=""trial-question"">Are the top parts of the faces the same or different?</h2>
                        </div>
                    ","1","html-button-response","67","112974","0.0-25.0-2.0","r6k7xsxtxk","Thursday 11/20 2:30 PM","[""https://raw.githubusercontent.com/annapusok731/lookit-stimuli-template/master/test_stimuli/bridget_alexis1.jpg"",""https://raw.githubusercontent.com/annapusok731/lookit-stimuli-template/master/test_stimuli/bridget_bridget1.jpg""]","","","","","","main","18","different","different","true","545","https://raw.githubusercontent.com/annapusok731/composite_face_effect_studies/main/CFE_Adult/misaligned/carson_otto.jpg","https://raw.githubusercontent.com/annapusok731/composite_face_effect_studies/main/CFE_Adult/misaligned/otto_carson.jpg","diff_misalign","","","","","","","","","","","","","","","","","","","","","","","","","","","","","","","","","","","","","","","","","","","","","","","","","","","","","","","","","","","","","","","","","","","","","","","",""
"null","<div class=""fixation-cross"">+</div>","null","html-keyboard-response","68","114176","0.0-26.0-0.0","r6k7xsxtxk","Thursday 11/20 2:30 PM","[""https://raw.githubusercontent.com/annapusok731/lookit-stimuli-template/master/test_stimuli/bridget_alexis1.jpg"",""https://raw.githubusercontent.com/annapusok731/lookit-stimuli-template/master/test_stimuli/bridget_bridget1.jpg""]","","","","","","","","","","","","","","","","","","","","","","","","","","","","","","","","","","","","","","","","","","","","","","","","","","","","","","","","","","","","","","","","","","","","","","","","","","","","","","","","","","","","","",""
"null","
            <div style=""text-align: center;"">
                <p style=""color: #666; font-size: 20px; margin-top: 10px; "">Trial 19 of 96</p>
                <div class=""face-images"">
                    <img src=""https://raw.githubusercontent.com/annapusok731/composite_face_effect_studies/main/CFE_Adult/misaligned/james_ted.jpg"" alt=""Face 1"">
                    <img src=""https://raw.githubusercontent.com/annapusok731/composite_face_effect_studies/main/CFE_Adult/misaligned/ted_james.jpg"" alt=""Face 2"">
                </div>
                <h2 class=""trial-question"">Are the top parts of the faces the same or different?</h2>
            </div>
        ","null","html-button-response","69","115179","0.0-26.0-1.0","r6k7xsxtxk","Thursday 11/20 2:30 PM","[""https://raw.githubusercontent.com/annapusok731/lookit-stimuli-template/master/test_stimuli/bridget_alexis1.jpg"",""https://raw.githubusercontent.com/annapusok731/lookit-stimuli-template/master/test_stimuli/bridget_bridget1.jpg""]","","","","","","main_viewing","19","","","","","https://raw.githubusercontent.com/annapusok731/composite_face_effect_studies/main/CFE_Adult/misaligned/james_ted.jpg","https://raw.githubusercontent.com/annapusok731/composite_face_effect_studies/main/CFE_Adult/misaligned/ted_james.jpg","","","","","","","","","","","","","","","","","","","","","","","","","","","","","","","","","","","","","","","","","","","","","","","","","","","","","","","","","","","","","","","","","","","","","","","","",""
"563","
                        <div style=""text-align: center;"">
                            <p style=""color: #666; font-size: 20px; margin-top: 10px;"">Trial 19 of 96</p>
                            <h2 class=""trial-question"">Are the top parts of the faces the same or different?</h2>
                        </div>
                    ","1","html-button-response","70","115742","0.0-26.0-2.0","r6k7xsxtxk","Thursday 11/20 2:30 PM","[""https://raw.githubusercontent.com/annapusok731/lookit-stimuli-template/master/test_stimuli/bridget_alexis1.jpg"",""https://raw.githubusercontent.com/annapusok731/lookit-stimuli-template/master/test_stimuli/bridget_bridget1.jpg""]","","","","","","main","19","different","different","true","563","https://raw.githubusercontent.com/annapusok731/composite_face_effect_studies/main/CFE_Adult/misaligned/james_ted.jpg","https://raw.githubusercontent.com/annapusok731/composite_face_effect_studies/main/CFE_Adult/misaligned/ted_james.jpg","diff_misalign","","","","","","","","","","","","","","","","","","","","","","","","","","","","","","","","","","","","","","","","","","","","","","","","","","","","","","","","","","","","","","","","","","","","","","","",""
"null","<div class=""fixation-cross"">+</div>","null","html-keyboard-response","71","116944","0.0-27.0-0.0","r6k7xsxtxk","Thursday 11/20 2:30 PM","[""https://raw.githubusercontent.com/annapusok731/lookit-stimuli-template/master/test_stimuli/bridget_alexis1.jpg"",""https://raw.githubusercontent.com/annapusok731/lookit-stimuli-template/master/test_stimuli/bridget_bridget1.jpg""]","","","","","","","","","","","","","","","","","","","","","","","","","","","","","","","","","","","","","","","","","","","","","","","","","","","","","","","","","","","","","","","","","","","","","","","","","","","","","","","","","","","","","",""
"null","
            <div style=""text-align: center;"">
                <p style=""color: #666; font-size: 20px; margin-top: 10px; "">Trial 20 of 96</p>
                <div class=""face-images"">
                    <img src=""https://raw.githubusercontent.com/annapusok731/composite_face_effect_studies/main/CFE_Adult/aligned/lucy_sadie.jpg"" alt=""Face 1"">
                    <img src=""https://raw.githubusercontent.com/annapusok731/composite_face_effect_studies/main/CFE_Adult/aligned/lucy_lucy.jpg"" alt=""Face 2"">
                </div>
                <h2 class=""trial-question"">Are the top parts of the faces the same or different?</h2>
            </div>
        ","null","html-button-response","72","117947","0.0-27.0-1.0","r6k7xsxtxk","Thursday 11/20 2:30 PM","[""https://raw.githubusercontent.com/annapusok731/lookit-stimuli-template/master/test_stimuli/bridget_alexis1.jpg"",""https://raw.githubusercontent.com/annapusok731/lookit-stimuli-template/master/test_stimuli/bridget_bridget1.jpg""]","","","","","","main_viewing","20","","","","","https://raw.githubusercontent.com/annapusok731/composite_face_effect_studies/main/CFE_Adult/aligned/lucy_sadie.jpg","https://raw.githubusercontent.com/annapusok731/composite_face_effect_studies/main/CFE_Adult/aligned/lucy_lucy.jpg","","","","","","","","","","","","","","","","","","","","","","","","","","","","","","","","","","","","","","","","","","","","","","","","","","","","","","","","","","","","","","","","","","","","","","","","",""
"727","
                        <div style=""text-align: center;"">
                            <p style=""color: #666; font-size: 20px; margin-top: 10px;"">Trial 20 of 96</p>
                            <h2 class=""trial-question"">Are the top parts of the faces the same or different?</h2>
                        </div>
                    ","1","html-button-response","73","118675","0.0-27.0-2.0","r6k7xsxtxk","Thursday 11/20 2:30 PM","[""https://raw.githubusercontent.com/annapusok731/lookit-stimuli-template/master/test_stimuli/bridget_alexis1.jpg"",""https://raw.githubusercontent.com/annapusok731/lookit-stimuli-template/master/test_stimuli/bridget_bridget1.jpg""]","","","","","","main","20","same","different","false","727","https://raw.githubusercontent.com/annapusok731/composite_face_effect_studies/main/CFE_Adult/aligned/lucy_sadie.jpg","https://raw.githubusercontent.com/annapusok731/composite_face_effect_studies/main/CFE_Adult/aligned/lucy_lucy.jpg","same_aligned","","","","","","","","","","","","","","","","","","","","","","","","","","","","","","","","","","","","","","","","","","","","","","","","","","","","","","","","","","","","","","","","","","","","","","","",""
"null","<div class=""fixation-cross"">+</div>","null","html-keyboard-response","74","119876","0.0-28.0-0.0","r6k7xsxtxk","Thursday 11/20 2:30 PM","[""https://raw.githubusercontent.com/annapusok731/lookit-stimuli-template/master/test_stimuli/bridget_alexis1.jpg"",""https://raw.githubusercontent.com/annapusok731/lookit-stimuli-template/master/test_stimuli/bridget_bridget1.jpg""]","","","","","","","","","","","","","","","","","","","","","","","","","","","","","","","","","","","","","","","","","","","","","","","","","","","","","","","","","","","","","","","","","","","","","","","","","","","","","","","","","","","","","",""
"null","
            <div style=""text-align: center;"">
                <p style=""color: #666; font-size: 20px; margin-top: 10px; "">Trial 21 of 96</p>
                <div class=""face-images"">
                    <img src=""https://raw.githubusercontent.com/annapusok731/composite_face_effect_studies/main/CFE_Adult/misaligned/bridget_bridget.jpg"" alt=""Face 1"">
                    <img src=""https://raw.githubusercontent.com/annapusok731/composite_face_effect_studies/main/CFE_Adult/misaligned/bridget_brenda.jpg"" alt=""Face 2"">
                </div>
                <h2 class=""trial-question"">Are the top parts of the faces the same or different?</h2>
            </div>
        ","null","html-button-response","75","120879","0.0-28.0-1.0","r6k7xsxtxk","Thursday 11/20 2:30 PM","[""https://raw.githubusercontent.com/annapusok731/lookit-stimuli-template/master/test_stimuli/bridget_alexis1.jpg"",""https://raw.githubusercontent.com/annapusok731/lookit-stimuli-template/master/test_stimuli/bridget_bridget1.jpg""]","","","","","","main_viewing","21","","","","","https://raw.githubusercontent.com/annapusok731/composite_face_effect_studies/main/CFE_Adult/misaligned/bridget_bridget.jpg","https://raw.githubusercontent.com/annapusok731/composite_face_effect_studies/main/CFE_Adult/misaligned/bridget_brenda.jpg","","","","","","","","","","","","","","","","","","","","","","","","","","","","","","","","","","","","","","","","","","","","","","","","","","","","","","","","","","","","","","","","","","","","","","","","",""
"695","
                        <div style=""text-align: center;"">
                            <p style=""color: #666; font-size: 20px; margin-top: 10px;"">Trial 21 of 96</p>
                            <h2 class=""trial-question"">Are the top parts of the faces the same or different?</h2>
                        </div>
                    ","0","html-button-response","76","121575","0.0-28.0-2.0","r6k7xsxtxk","Thursday 11/20 2:30 PM","[""https://raw.githubusercontent.com/annapusok731/lookit-stimuli-template/master/test_stimuli/bridget_alexis1.jpg"",""https://raw.githubusercontent.com/annapusok731/lookit-stimuli-template/master/test_stimuli/bridget_bridget1.jpg""]","","","","","","main","21","same","same","true","695","https://raw.githubusercontent.com/annapusok731/composite_face_effect_studies/main/CFE_Adult/misaligned/bridget_bridget.jpg","https://raw.githubusercontent.com/annapusok731/composite_face_effect_studies/main/CFE_Adult/misaligned/bridget_brenda.jpg","same_misaligned","","","","","","","","","","","","","","","","","","","","","","","","","","","","","","","","","","","","","","","","","","","","","","","","","","","","","","","","","","","","","","","","","","","","","","","",""
"null","<div class=""fixation-cross"">+</div>","null","html-keyboard-response","77","122776","0.0-29.0-0.0","r6k7xsxtxk","Thursday 11/20 2:30 PM","[""https://raw.githubusercontent.com/annapusok731/lookit-stimuli-template/master/test_stimuli/bridget_alexis1.jpg"",""https://raw.githubusercontent.com/annapusok731/lookit-stimuli-template/master/test_stimuli/bridget_bridget1.jpg""]","","","","","","","","","","","","","","","","","","","","","","","","","","","","","","","","","","","","","","","","","","","","","","","","","","","","","","","","","","","","","","","","","","","","","","","","","","","","","","","","","","","","","",""
"null","
            <div style=""text-align: center;"">
                <p style=""color: #666; font-size: 20px; margin-top: 10px; "">Trial 22 of 96</p>
                <div class=""face-images"">
                    <img src=""https://raw.githubusercontent.com/annapusok731/composite_face_effect_studies/main/CFE_Adult/misaligned/meredith_brianne.jpg"" alt=""Face 1"">
                    <img src=""https://raw.githubusercontent.com/annapusok731/composite_face_effect_studies/main/CFE_Adult/misaligned/brianne_meredith.jpg"" alt=""Face 2"">
                </div>
                <h2 class=""trial-question"">Are the top parts of the faces the same or different?</h2>
            </div>
        ","null","html-button-response","78","123778","0.0-29.0-1.0","r6k7xsxtxk","Thursday 11/20 2:30 PM","[""https://raw.githubusercontent.com/annapusok731/lookit-stimuli-template/master/test_stimuli/bridget_alexis1.jpg"",""https://raw.githubusercontent.com/annapusok731/lookit-stimuli-template/master/test_stimuli/bridget_bridget1.jpg""]","","","","","","main_viewing","22","","","","","https://raw.githubusercontent.com/annapusok731/composite_face_effect_studies/main/CFE_Adult/misaligned/meredith_brianne.jpg","https://raw.githubusercontent.com/annapusok731/composite_face_effect_studies/main/CFE_Adult/misaligned/brianne_meredith.jpg","","","","","","","","","","","","","","","","","","","","","","","","","","","","","","","","","","","","","","","","","","","","","","","","","","","","","","","","","","","","","","","","","","","","","","","","",""
"562","
                        <div style=""text-align: center;"">
                            <p style=""color: #666; font-size: 20px; margin-top: 10px;"">Trial 22 of 96</p>
                            <h2 class=""trial-question"">Are the top parts of the faces the same or different?</h2>
                        </div>
                    ","1","html-button-response","79","124341","0.0-29.0-2.0","r6k7xsxtxk","Thursday 11/20 2:30 PM","[""https://raw.githubusercontent.com/annapusok731/lookit-stimuli-template/master/test_stimuli/bridget_alexis1.jpg"",""https://raw.githubusercontent.com/annapusok731/lookit-stimuli-template/master/test_stimuli/bridget_bridget1.jpg""]","","","","","","main","22","different","different","true","562","https://raw.githubusercontent.com/annapusok731/composite_face_effect_studies/main/CFE_Adult/misaligned/meredith_brianne.jpg","https://raw.githubusercontent.com/annapusok731/composite_face_effect_studies/main/CFE_Adult/misaligned/brianne_meredith.jpg","diff_misalign","","","","","","","","","","","","","","","","","","","","","","","","","","","","","","","","","","","","","","","","","","","","","","","","","","","","","","","","","","","","","","","","","","","","","","","",""
"null","<div class=""fixation-cross"">+</div>","null","html-keyboard-response","80","125543","0.0-30.0-0.0","r6k7xsxtxk","Thursday 11/20 2:30 PM","[""https://raw.githubusercontent.com/annapusok731/lookit-stimuli-template/master/test_stimuli/bridget_alexis1.jpg"",""https://raw.githubusercontent.com/annapusok731/lookit-stimuli-template/master/test_stimuli/bridget_bridget1.jpg""]","","","","","","","","","","","","","","","","","","","","","","","","","","","","","","","","","","","","","","","","","","","","","","","","","","","","","","","","","","","","","","","","","","","","","","","","","","","","","","","","","","","","","",""
"null","
            <div style=""text-align: center;"">
                <p style=""color: #666; font-size: 20px; margin-top: 10px; "">Trial 23 of 96</p>
                <div class=""face-images"">
                    <img src=""https://raw.githubusercontent.com/annapusok731/composite_face_effect_studies/main/CFE_Adult/misaligned/liam_carter.jpg"" alt=""Face 1"">
                    <img src=""https://raw.githubusercontent.com/annapusok731/composite_face_effect_studies/main/CFE_Adult/misaligned/liam_liam.jpg"" alt=""Face 2"">
                </div>
                <h2 class=""trial-question"">Are the top parts of the faces the same or different?</h2>
            </div>
        ","null","html-button-response","81","126545","0.0-30.0-1.0","r6k7xsxtxk","Thursday 11/20 2:30 PM","[""https://raw.githubusercontent.com/annapusok731/lookit-stimuli-template/master/test_stimuli/bridget_alexis1.jpg"",""https://raw.githubusercontent.com/annapusok731/lookit-stimuli-template/master/test_stimuli/bridget_bridget1.jpg""]","","","","","","main_viewing","23","","","","","https://raw.githubusercontent.com/annapusok731/composite_face_effect_studies/main/CFE_Adult/misaligned/liam_carter.jpg","https://raw.githubusercontent.com/annapusok731/composite_face_effect_studies/main/CFE_Adult/misaligned/liam_liam.jpg","","","","","","","","","","","","","","","","","","","","","","","","","","","","","","","","","","","","","","","","","","","","","","","","","","","","","","","","","","","","","","","","","","","","","","","","",""
"679","
                        <div style=""text-align: center;"">
                            <p style=""color: #666; font-size: 20px; margin-top: 10px;"">Trial 23 of 96</p>
                            <h2 class=""trial-question"">Are the top parts of the faces the same or different?</h2>
                        </div>
                    ","1","html-button-response","82","127225","0.0-30.0-2.0","r6k7xsxtxk","Thursday 11/20 2:30 PM","[""https://raw.githubusercontent.com/annapusok731/lookit-stimuli-template/master/test_stimuli/bridget_alexis1.jpg"",""https://raw.githubusercontent.com/annapusok731/lookit-stimuli-template/master/test_stimuli/bridget_bridget1.jpg""]","","","","","","main","23","same","different","false","679","https://raw.githubusercontent.com/annapusok731/composite_face_effect_studies/main/CFE_Adult/misaligned/liam_carter.jpg","https://raw.githubusercontent.com/annapusok731/composite_face_effect_studies/main/CFE_Adult/misaligned/liam_liam.jpg","same_misaligned","","","","","","","","","","","","","","","","","","","","","","","","","","","","","","","","","","","","","","","","","","","","","","","","","","","","","","","","","","","","","","","","","","","","","","","",""
"null","<div class=""fixation-cross"">+</div>","null","html-keyboard-response","83","128426","0.0-31.0-0.0","r6k7xsxtxk","Thursday 11/20 2:30 PM","[""https://raw.githubusercontent.com/annapusok731/lookit-stimuli-template/master/test_stimuli/bridget_alexis1.jpg"",""https://raw.githubusercontent.com/annapusok731/lookit-stimuli-template/master/test_stimuli/bridget_bridget1.jpg""]","","","","","","","","","","","","","","","","","","","","","","","","","","","","","","","","","","","","","","","","","","","","","","","","","","","","","","","","","","","","","","","","","","","","","","","","","","","","","","","","","","","","","",""
"null","
            <div style=""text-align: center;"">
                <p style=""color: #666; font-size: 20px; margin-top: 10px; "">Trial 24 of 96</p>
                <div class=""face-images"">
                    <img src=""https://raw.githubusercontent.com/annapusok731/composite_face_effect_studies/main/CFE_Adult/misaligned/finn_finn.jpg"" alt=""Face 1"">
                    <img src=""https://raw.githubusercontent.com/annapusok731/composite_face_effect_studies/main/CFE_Adult/misaligned/finn_fred.jpg"" alt=""Face 2"">
                </div>
                <h2 class=""trial-question"">Are the top parts of the faces the same or different?</h2>
            </div>
        ","null","html-button-response","84","129428","0.0-31.0-1.0","r6k7xsxtxk","Thursday 11/20 2:30 PM","[""https://raw.githubusercontent.com/annapusok731/lookit-stimuli-template/master/test_stimuli/bridget_alexis1.jpg"",""https://raw.githubusercontent.com/annapusok731/lookit-stimuli-template/master/test_stimuli/bridget_bridget1.jpg""]","","","","","","main_viewing","24","","","","","https://raw.githubusercontent.com/annapusok731/composite_face_effect_studies/main/CFE_Adult/misaligned/finn_finn.jpg","https://raw.githubusercontent.com/annapusok731/composite_face_effect_studies/main/CFE_Adult/misaligned/finn_fred.jpg","","","","","","","","","","","","","","","","","","","","","","","","","","","","","","","","","","","","","","","","","","","","","","","","","","","","","","","","","","","","","","","","","","","","","","","","",""
"594","
                        <div style=""text-align: center;"">
                            <p style=""color: #666; font-size: 20px; margin-top: 10px;"">Trial 24 of 96</p>
                            <h2 class=""trial-question"">Are the top parts of the faces the same or different?</h2>
                        </div>
                    ","1","html-button-response","85","130024","0.0-31.0-2.0","r6k7xsxtxk","Thursday 11/20 2:30 PM","[""https://raw.githubusercontent.com/annapusok731/lookit-stimuli-template/master/test_stimuli/bridget_alexis1.jpg"",""https://raw.githubusercontent.com/annapusok731/lookit-stimuli-template/master/test_stimuli/bridget_bridget1.jpg""]","","","","","","main","24","same","different","false","594","https://raw.githubusercontent.com/annapusok731/composite_face_effect_studies/main/CFE_Adult/misaligned/finn_finn.jpg","https://raw.githubusercontent.com/annapusok731/composite_face_effect_studies/main/CFE_Adult/misaligned/finn_fred.jpg","same_misaligned","","","","","","","","","","","","","","","","","","","","","","","","","","","","","","","","","","","","","","","","","","","","","","","","","","","","","","","","","","","","","","","","","","","","","","","",""
"null","<div class=""fixation-cross"">+</div>","null","html-keyboard-response","86","131226","0.0-32.0-0.0","r6k7xsxtxk","Thursday 11/20 2:30 PM","[""https://raw.githubusercontent.com/annapusok731/lookit-stimuli-template/master/test_stimuli/bridget_alexis1.jpg"",""https://raw.githubusercontent.com/annapusok731/lookit-stimuli-template/master/test_stimuli/bridget_bridget1.jpg""]","","","","","","","","","","","","","","","","","","","","","","","","","","","","","","","","","","","","","","","","","","","","","","","","","","","","","","","","","","","","","","","","","","","","","","","","","","","","","","","","","","","","","",""
"null","
            <div style=""text-align: center;"">
                <p style=""color: #666; font-size: 20px; margin-top: 10px; "">Trial 25 of 96</p>
                <div class=""face-images"">
                    <img src=""https://raw.githubusercontent.com/annapusok731/composite_face_effect_studies/main/CFE_Adult/misaligned/liv_rose.jpg"" alt=""Face 1"">
                    <img src=""https://raw.githubusercontent.com/annapusok731/composite_face_effect_studies/main/CFE_Adult/misaligned/rose_liv.jpg"" alt=""Face 2"">
                </div>
                <h2 class=""trial-question"">Are the top parts of the faces the same or different?</h2>
            </div>
        ","null","html-button-response","87","132228","0.0-32.0-1.0","r6k7xsxtxk","Thursday 11/20 2:30 PM","[""https://raw.githubusercontent.com/annapusok731/lookit-stimuli-template/master/test_stimuli/bridget_alexis1.jpg"",""https://raw.githubusercontent.com/annapusok731/lookit-stimuli-template/master/test_stimuli/bridget_bridget1.jpg""]","","","","","","main_viewing","25","","","","","https://raw.githubusercontent.com/annapusok731/composite_face_effect_studies/main/CFE_Adult/misaligned/liv_rose.jpg","https://raw.githubusercontent.com/annapusok731/composite_face_effect_studies/main/CFE_Adult/misaligned/rose_liv.jpg","","","","","","","","","","","","","","","","","","","","","","","","","","","","","","","","","","","","","","","","","","","","","","","","","","","","","","","","","","","","","","","","","","","","","","","","",""
"446","
                        <div style=""text-align: center;"">
                            <p style=""color: #666; font-size: 20px; margin-top: 10px;"">Trial 25 of 96</p>
                            <h2 class=""trial-question"">Are the top parts of the faces the same or different?</h2>
                        </div>
